delay,freq,condition,trials.thisRepN,trials.thisTrialN,trials.thisN,trials.thisIndex,polygon.started,polygon_2.started,key_resp.started,polygon.stopped,key_resp.keys,key_resp.rt,sound_1.started,sound_1.stopped,text.started,textbox.started,button.started,textbox.text,button.numClicks,button.timesOn,button.timesOff,participant,session,date,expName,psychopyVersion,frameRate,
0.7,1000,exp,0,0,0,8,48.33090497246212,49.14284456239193,49.14284456239193,49.343031216769305,space,5.030455073905614,54.943002149273255,55.28175905363105,55.28175905363105,55.28175905363105,55.28175905363105,250,1,[64.85013024092268],[64.85013388263633],006637,001,2022-11-04_11h32.24.680,untitled,2022.2.2,59.98129404691774,
0.1,1000,exp,0,1,1,9,120.12687564805947,121.11044589141875,121.11044589141875,121.12679420609948,space,16.748592065903267,137.96240619276722,,138.26099532668832,138.26099532668832,138.26099532668832,300 ,2,"[64.85013024092268, 9.732799193261144]","[64.85013388263633, 9.732802503909625]",006637,001,2022-11-04_11h32.24.680,untitled,2022.2.2,59.98129404691774,
0.4,1000,exp,0,2,2,7,147.99456358365796,148.99446128461113,148.99446128461113,148.99446128461113,space,1.3600013561131163,150.77784182779595,151.07788168800698,151.07788168800698,151.07788168800698,151.07788168800698,400,3,"[64.85013024092268, 9.732799193261144, 34.917669793243476]","[64.85013388263633, 9.732802503909625, 34.91767310389196]",006637,001,2022-11-04_11h32.24.680,untitled,2022.2.2,59.98129404691774,
0.4,1000,exp,0,3,3,10,185.99615534358554,186.9950373374968,186.9950373374968,187.01167334755564,space,9.077936398536167,196.4950690535117,,196.79507878681943,196.79507878681943,196.79507878681943,450,4,"[64.85013024092268, 9.732799193261144, 34.917669793243476, 24.8494535443142]","[64.85013388263633, 9.732802503909625, 34.91767310389196, 24.849456854963137]",006637,001,2022-11-04_11h32.24.680,untitled,2022.2.2,59.98129404691774,
0.7,400,unexp,0,4,4,2,221.64550797932543,222.6454550089452,222.6454550089452,222.6454550089452,space,0.13135934451020148,223.47884290177007,,223.77894268472437,223.77894268472437,223.77894268472437,"459
",5,"[64.85013024092268, 9.732799193261144, 34.917669793243476, 24.8494535443142, 3.4327584060683876]","[64.85013388263633, 9.732802503909625, 34.91767310389196, 24.849456854963137, 3.4327620477820346]",006637,001,2022-11-04_11h32.24.680,untitled,2022.2.2,59.98129404691774,
0.7,1000,exp,0,5,5,5,227.21215398754384,228.21219570171843,228.21219570171843,228.21219570171843,space,0.0198388165013057,228.94573244131215,229.24639702094555,229.24639702094555,229.24639702094555,229.24639702094555,"300
",6,"[64.85013024092268, 9.732799193261144, 34.917669793243476, 24.8494535443142, 3.4327584060683876, 3.1316251047819605]","[64.85013388263633, 9.732802503909625, 34.91767310389196, 24.849456854963137, 3.4327620477820346, 3.131629077560774]",006637,001,2022-11-04_11h32.24.680,untitled,2022.2.2,59.98129404691774,
0.4,1000,exp,0,6,6,4,232.37888355653695,233.37891600089506,233.37891600089506,233.37891600089506,space,0.9733179110785386,234.7789810220367,235.07901823372913,235.07901823372913,235.07901823372913,235.07901823372913,"200
 ",7,"[64.85013024092268, 9.732799193261144, 34.917669793243476, 24.8494535443142, 3.4327584060683876, 3.1316251047819605, 4.366286869039868]","[64.85013388263633, 9.732802503909625, 34.91767310389196, 24.849456854963137, 3.4327620477820346, 3.131629077560774, 4.366290179688804]",006637,001,2022-11-04_11h32.24.680,untitled,2022.2.2,59.98129404691774,
0.4,400,unexp,0,7,7,1,239.44581063883606,240.44573085220054,240.44573085220054,240.44573085220054,space,0.4660361391133847,241.32901717432122,241.62904048128894,241.62904048128894,241.62904048128894,241.62904048128894,"450
",8,"[64.85013024092268, 9.732799193261144, 34.917669793243476, 24.8494535443142, 3.4327584060683876, 3.1316251047819605, 4.366286869039868, 5.599688269312082]","[64.85013388263633, 9.732802503909625, 34.91767310389196, 24.849456854963137, 3.4327620477820346, 3.131629077560774, 4.366290179688804, 5.599691579961018]",006637,001,2022-11-04_11h32.24.680,untitled,2022.2.2,59.98129404691774,
0.1,400,unexp,0,8,8,0,247.22909457728974,248.22912867697187,248.22912867697187,248.22912867697187,space,0.3065873488908437,248.6471705209239,,248.94596690145772,248.94596690145772,248.94596690145772,100,9,"[64.85013024092268, 9.732799193261144, 34.917669793243476, 24.8494535443142, 3.4327584060683876, 3.1316251047819605, 4.366286869039868, 5.599688269312082, 2.8653264498320823]","[64.85013388263633, 9.732802503909625, 34.91767310389196, 24.849456854963137, 3.4327620477820346, 3.131629077560774, 4.366290179688804, 5.599691579961018, 2.8653300915457294]",006637,001,2022-11-04_11h32.24.680,untitled,2022.2.2,59.98129404691774,
0.1,1000,exp,0,9,9,6,251.81252193304817,252.81258880815312,252.81258880815312,252.81258880815312,space,0.4112770152964913,253.3298746323523,,253.63128642541278,253.63128642541278,253.63128642541278,"250
",10,"[64.85013024092268, 9.732799193261144, 34.917669793243476, 24.8494535443142, 3.4327584060683876, 3.1316251047819605, 4.366286869039868, 5.599688269312082, 2.8653264498320823, 3.7640944250001667]","[64.85013388263633, 9.732802503909625, 34.91767310389196, 24.849456854963137, 3.4327620477820346, 3.131629077560774, 4.366290179688804, 5.599691579961018, 2.8653300915457294, 3.7640980667138138]",006637,001,2022-11-04_11h32.24.680,untitled,2022.2.2,59.98129404691774,
0.7,1000,exp,0,10,10,11,257.39598040890496,258.3811404258022,258.3811404258022,258.39780854915443,space,0.32983108282587636,259.42946821710956,,259.7294964900502,259.7294964900502,259.7294964900502,"100
  ",11,"[64.85013024092268, 9.732799193261144, 34.917669793243476, 24.8494535443142, 3.4327584060683876, 3.1316251047819605, 4.366286869039868, 5.599688269312082, 2.8653264498320823, 3.7640944250001667, 5.5826251855619375]","[64.85013388263633, 9.732802503909625, 34.91767310389196, 24.849456854963137, 3.4327620477820346, 3.131629077560774, 4.366290179688804, 5.599691579961018, 2.8653300915457294, 3.7640980667138138, 5.582628496210873]",006637,001,2022-11-04_11h32.24.680,untitled,2022.2.2,59.98129404691774,
0.1,1000,exp,0,11,11,3,265.3128861044124,266.3128374378757,266.3128374378757,266.3128374378757,space,0.2304576562114562,266.6629947599051,266.9629366249128,266.9629366249128,266.9629366249128,266.9629366249128,650,12,"[64.85013024092268, 9.732799193261144, 34.917669793243476, 24.8494535443142, 3.4327584060683876, 3.1316251047819605, 4.366286869039868, 5.599688269312082, 2.8653264498320823, 3.7640944250001667, 5.5826251855619375, 9.33276522600454]","[64.85013388263633, 9.732802503909625, 34.91767310389196, 24.849456854963137, 3.4327620477820346, 3.131629077560774, 4.366290179688804, 5.599691579961018, 2.8653300915457294, 3.7640980667138138, 5.582628496210873, 9.332768536653475]",006637,001,2022-11-04_11h32.24.680,untitled,2022.2.2,59.98129404691774,
0.7,400,unexp,1,0,12,2,276.29630472005783,277.29664737220537,277.29664737220537,277.29664737220537,space,0.08603358329264665,278.113118843021,278.41311268521395,278.41311268521395,278.41311268521395,278.41311268521395,450,13,"[64.85013024092268, 9.732799193261144, 34.917669793243476, 24.8494535443142, 3.4327584060683876, 3.1316251047819605, 4.366286869039868, 5.599688269312082, 2.8653264498320823, 3.7640944250001667, 5.5826251855619375, 9.33276522600454, 2.099304565119837]","[64.85013388263633, 9.732802503909625, 34.91767310389196, 24.849456854963137, 3.4327620477820346, 3.131629077560774, 4.366290179688804, 5.599691579961018, 2.8653300915457294, 3.7640980667138138, 5.582628496210873, 9.332768536653475, 2.0993078757687726]",006637,001,2022-11-04_11h32.24.680,untitled,2022.2.2,59.98129404691774,
0.7,1000,exp,1,1,13,11,280.51308335286603,281.5130800422171,281.5130800422171,281.5130800422171,space,4.533256213828281,286.74651812447763,287.0472740780174,287.0472740780174,287.0472740780174,287.0472740780174,300,14,"[64.85013024092268, 9.732799193261144, 34.917669793243476, 24.8494535443142, 3.4327584060683876, 3.1316251047819605, 4.366286869039868, 5.599688269312082, 2.8653264498320823, 3.7640944250001667, 5.5826251855619375, 9.33276522600454, 2.099304565119837, 2.515198526364202]","[64.85013388263633, 9.732802503909625, 34.91767310389196, 24.849456854963137, 3.4327620477820346, 3.131629077560774, 4.366290179688804, 5.599691579961018, 2.8653300915457294, 3.7640980667138138, 5.582628496210873, 9.332768536653475, 2.0993078757687726, 2.515202168077849]",006637,001,2022-11-04_11h32.24.680,untitled,2022.2.2,59.98129404691774,
0.7,1000,exp,1,2,14,5,289.563306887871,290.5630738181976,290.5630738181976,290.5630738181976,space,6.379215699432734,297.6633539652964,,297.96332099123447,297.96332099123447,297.96332099123447,250,15,"[64.85013024092268, 9.732799193261144, 34.917669793243476, 24.8494535443142, 3.4327584060683876, 3.1316251047819605, 4.366286869039868, 5.599688269312082, 2.8653264498320823, 3.7640944250001667, 5.5826251855619375, 9.33276522600454, 2.099304565119837, 2.515198526364202, 3.432824619043913]","[64.85013388263633, 9.732802503909625, 34.91767310389196, 24.849456854963137, 3.4327620477820346, 3.131629077560774, 4.366290179688804, 5.599691579961018, 2.8653300915457294, 3.7640980667138138, 5.582628496210873, 9.332768536653475, 2.0993078757687726, 2.515202168077849, 3.4328279296928486]",006637,001,2022-11-04_11h32.24.680,untitled,2022.2.2,59.98129404691774,
0.1,400,unexp,1,3,15,0,301.3970312088236,302.3966779626003,302.3966779626003,302.3966779626003,space,1.4888239967131085,303.99672636428494,304.2966798165635,304.2966798165635,304.2966798165635,304.2966798165635,500,16,"[64.85013024092268, 9.732799193261144, 34.917669793243476, 24.8494535443142, 3.4327584060683876, 3.1316251047819605, 4.366286869039868, 5.599688269312082, 2.8653264498320823, 3.7640944250001667, 5.5826251855619375, 9.33276522600454, 2.099304565119837, 2.515198526364202, 3.432824619043913, 2.6829163240145135]","[64.85013388263633, 9.732802503909625, 34.91767310389196, 24.849456854963137, 3.4327620477820346, 3.131629077560774, 4.366290179688804, 5.599691579961018, 2.8653300915457294, 3.7640980667138138, 5.582628496210873, 9.332768536653475, 2.0993078757687726, 2.515202168077849, 3.4328279296928486, 2.6829199657281606]",006637,001,2022-11-04_11h32.24.680,untitled,2022.2.2,59.98129404691774,
0.4,400,unexp,1,4,16,1,306.9801192230834,307.9800741982599,307.9800741982599,307.9800741982599,space,2.489646030802305,310.89693778231566,,311.19794004812366,311.19794004812366,311.19794004812366,360,17,"[64.85013024092268, 9.732799193261144, 34.917669793243476, 24.8494535443142, 3.4327584060683876, 3.1316251047819605, 4.366286869039868, 5.599688269312082, 2.8653264498320823, 3.7640944250001667, 5.5826251855619375, 9.33276522600454, 2.099304565119837, 2.515198526364202, 3.432824619043913, 2.6829163240145135, 2.4812835782549882]","[64.85013388263633, 9.732802503909625, 34.91767310389196, 24.849456854963137, 3.4327620477820346, 3.131629077560774, 4.366290179688804, 5.599691579961018, 2.8653300915457294, 3.7640980667138138, 5.582628496210873, 9.332768536653475, 2.0993078757687726, 2.515202168077849, 3.4328279296928486, 2.6829199657281606, 2.4812872199686353]",006637,001,2022-11-04_11h32.24.680,untitled,2022.2.2,59.98129404691774,
0.1,1000,exp,1,5,17,6,313.6801115423782,314.6800738009824,314.6800738009824,314.6800738009824,space,2.5098886616292475,317.3135395602664,317.6135135385671,317.6135135385671,317.6135135385671,317.6135135385671,600,18,"[64.85013024092268, 9.732799193261144, 34.917669793243476, 24.8494535443142, 3.4327584060683876, 3.1316251047819605, 4.366286869039868, 5.599688269312082, 2.8653264498320823, 3.7640944250001667, 5.5826251855619375, 9.33276522600454, 2.099304565119837, 2.515198526364202, 3.432824619043913, 2.6829163240145135, 2.4812835782549882, 2.7990972522939046]","[64.85013388263633, 9.732802503909625, 34.91767310389196, 24.849456854963137, 3.4327620477820346, 3.131629077560774, 4.366290179688804, 5.599691579961018, 2.8653300915457294, 3.7640980667138138, 5.582628496210873, 9.332768536653475, 2.0993078757687726, 2.515202168077849, 3.4328279296928486, 2.6829199657281606, 2.4812872199686353, 2.79910056294284]",006637,001,2022-11-04_11h32.24.680,untitled,2022.2.2,59.98129404691774,
0.4,1000,exp,1,6,18,7,320.4134947340822,321.41354207635914,321.41354207635914,321.41354207635914,space,2.375617686352143,324.2135357861268,324.51360676643617,324.51360676643617,324.51360676643617,324.51360676643617,450,19,"[64.85013024092268, 9.732799193261144, 34.917669793243476, 24.8494535443142, 3.4327584060683876, 3.1316251047819605, 4.366286869039868, 5.599688269312082, 2.8653264498320823, 3.7640944250001667, 5.5826251855619375, 9.33276522600454, 2.099304565119837, 2.515198526364202, 3.432824619043913, 2.6829163240145135, 2.4812835782549882, 2.7990972522939046, 2.3993662093998864]","[64.85013388263633, 9.732802503909625, 34.91767310389196, 24.849456854963137, 3.4327620477820346, 3.131629077560774, 4.366290179688804, 5.599691579961018, 2.8653300915457294, 3.7640980667138138, 5.582628496210873, 9.332768536653475, 2.0993078757687726, 2.515202168077849, 3.4328279296928486, 2.6829199657281606, 2.4812872199686353, 2.79910056294284, 2.399369520048822]",006637,001,2022-11-04_11h32.24.680,untitled,2022.2.2,59.98129404691774,
0.1,1000,exp,1,7,19,3,326.91374005315583,327.91369105555395,327.91369105555395,327.91369105555395,space,2.579706933497164,330.59878869982884,,330.8973354574455,330.8973354574455,330.8973354574455,700,20,"[64.85013024092268, 9.732799193261144, 34.917669793243476, 24.8494535443142, 3.4327584060683876, 3.1316251047819605, 4.366286869039868, 5.599688269312082, 2.8653264498320823, 3.7640944250001667, 5.5826251855619375, 9.33276522600454, 2.099304565119837, 2.515198526364202, 3.432824619043913, 2.6829163240145135, 2.4812835782549882, 2.7990972522939046, 2.3993662093998864, 2.232909437865146]","[64.85013388263633, 9.732802503909625, 34.91767310389196, 24.849456854963137, 3.4327620477820346, 3.131629077560774, 4.366290179688804, 5.599691579961018, 2.8653300915457294, 3.7640980667138138, 5.582628496210873, 9.332768536653475, 2.0993078757687726, 2.515202168077849, 3.4328279296928486, 2.6829199657281606, 2.4812872199686353, 2.79910056294284, 2.399369520048822, 2.2329130795787933]",006637,001,2022-11-04_11h32.24.680,untitled,2022.2.2,59.98129404691774,
0.7,1000,exp,1,8,20,8,333.130593175561,334.1304892211897,334.1304892211897,334.1304892211897,space,6.554206992426771,341.41410382724206,,341.71416984157895,341.71416984157895,341.71416984157895,567,21,"[64.85013024092268, 9.732799193261144, 34.917669793243476, 24.8494535443142, 3.4327584060683876, 3.1316251047819605, 4.366286869039868, 5.599688269312082, 2.8653264498320823, 3.7640944250001667, 5.5826251855619375, 9.33276522600454, 2.099304565119837, 2.515198526364202, 3.432824619043913, 2.6829163240145135, 2.4812835782549882, 2.7990972522939046, 2.3993662093998864, 2.232909437865146, 2.2159655374703107]","[64.85013388263633, 9.732802503909625, 34.91767310389196, 24.849456854963137, 3.4327620477820346, 3.131629077560774, 4.366290179688804, 5.599691579961018, 2.8653300915457294, 3.7640980667138138, 5.582628496210873, 9.332768536653475, 2.0993078757687726, 2.515202168077849, 3.4328279296928486, 2.6829199657281606, 2.4812872199686353, 2.79910056294284, 2.399369520048822, 2.2329130795787933, 2.215968848119246]",006637,001,2022-11-04_11h32.24.680,untitled,2022.2.2,59.98129404691774,
0.4,1000,exp,1,9,21,10,343.9309077534067,344.9152444119559,344.9152444119559,344.9321687795227,space,1.0016193231363104,346.34753297075093,346.64753707595537,346.64753707595537,346.64753707595537,346.64753707595537,568 ,22,"[64.85013024092268, 9.732799193261144, 34.917669793243476, 24.8494535443142, 3.4327584060683876, 3.1316251047819605, 4.366286869039868, 5.599688269312082, 2.8653264498320823, 3.7640944250001667, 5.5826251855619375, 9.33276522600454, 2.099304565119837, 2.515198526364202, 3.432824619043913, 2.6829163240145135, 2.4812835782549882, 2.7990972522939046, 2.3993662093998864, 2.232909437865146, 2.2159655374703107, 2.649257620120352]","[64.85013388263633, 9.732802503909625, 34.91767310389196, 24.849456854963137, 3.4327620477820346, 3.131629077560774, 4.366290179688804, 5.599691579961018, 2.8653300915457294, 3.7640980667138138, 5.582628496210873, 9.332768536653475, 2.0993078757687726, 2.515202168077849, 3.4328279296928486, 2.6829199657281606, 2.4812872199686353, 2.79910056294284, 2.399369520048822, 2.2329130795787933, 2.215968848119246, 2.6492615928987107]",006637,001,2022-11-04_11h32.24.680,untitled,2022.2.2,59.98129404691774,
0.4,1000,exp,1,10,22,4,349.29753826778915,350.2977018138381,350.2977018138381,350.2977018138381,space,1.2903797367825973,351.99751992679484,352.2975985215967,352.2975985215967,352.2975985215967,352.2975985215967,907,23,"[64.85013024092268, 9.732799193261144, 34.917669793243476, 24.8494535443142, 3.4327584060683876, 3.1316251047819605, 4.366286869039868, 5.599688269312082, 2.8653264498320823, 3.7640944250001667, 5.5826251855619375, 9.33276522600454, 2.099304565119837, 2.515198526364202, 3.432824619043913, 2.6829163240145135, 2.4812835782549882, 2.7990972522939046, 2.3993662093998864, 2.232909437865146, 2.2159655374703107, 2.649257620120352, 2.0827900558701913]","[64.85013388263633, 9.732802503909625, 34.91767310389196, 24.849456854963137, 3.4327620477820346, 3.131629077560774, 4.366290179688804, 5.599691579961018, 2.8653300915457294, 3.7640980667138138, 5.582628496210873, 9.332768536653475, 2.0993078757687726, 2.515202168077849, 3.4328279296928486, 2.6829199657281606, 2.4812872199686353, 2.79910056294284, 2.399369520048822, 2.2329130795787933, 2.215968848119246, 2.6492615928987107, 2.0827933665191267]",006637,001,2022-11-04_11h32.24.680,untitled,2022.2.2,59.98129404691774,
0.1,1000,exp,1,11,23,9,354.3811669109923,355.3809576779904,355.3809576779904,355.3809576779904,space,0.8392697424633297,356.3476240135921,,356.64765460398667,356.64765460398667,356.64765460398667,568,24,"[64.85013024092268, 9.732799193261144, 34.917669793243476, 24.8494535443142, 3.4327584060683876, 3.1316251047819605, 4.366286869039868, 5.599688269312082, 2.8653264498320823, 3.7640944250001667, 5.5826251855619375, 9.33276522600454, 2.099304565119837, 2.515198526364202, 3.432824619043913, 2.6829163240145135, 2.4812835782549882, 2.7990972522939046, 2.3993662093998864, 2.232909437865146, 2.2159655374703107, 2.649257620120352, 2.0827900558701913, 5.932544869222511]","[64.85013388263633, 9.732802503909625, 34.91767310389196, 24.849456854963137, 3.4327620477820346, 3.131629077560774, 4.366290179688804, 5.599691579961018, 2.8653300915457294, 3.7640980667138138, 5.582628496210873, 9.332768536653475, 2.0993078757687726, 2.515202168077849, 3.4328279296928486, 2.6829199657281606, 2.4812872199686353, 2.79910056294284, 2.399369520048822, 2.2329130795787933, 2.215968848119246, 2.6492615928987107, 2.0827933665191267, 5.932548510936158]",006637,001,2022-11-04_11h32.24.680,untitled,2022.2.2,59.98129404691774,
0.1,1000,exp,2,0,24,6,362.5810814300412,363.5811003007393,363.5811003007393,363.5811003007393,space,1.3343845491413049,365.04778484490924,365.3478352991965,365.3478352991965,365.3478352991965,365.3478352991965,897,25,"[64.85013024092268, 9.732799193261144, 34.917669793243476, 24.8494535443142, 3.4327584060683876, 3.1316251047819605, 4.366286869039868, 5.599688269312082, 2.8653264498320823, 3.7640944250001667, 5.5826251855619375, 9.33276522600454, 2.099304565119837, 2.515198526364202, 3.432824619043913, 2.6829163240145135, 2.4812835782549882, 2.7990972522939046, 2.3993662093998864, 2.232909437865146, 2.2159655374703107, 2.649257620120352, 2.0827900558701913, 5.932544869222511, 2.2659864607708187]","[64.85013388263633, 9.732802503909625, 34.91767310389196, 24.849456854963137, 3.4327620477820346, 3.131629077560774, 4.366290179688804, 5.599691579961018, 2.8653300915457294, 3.7640980667138138, 5.582628496210873, 9.332768536653475, 2.0993078757687726, 2.515202168077849, 3.4328279296928486, 2.6829199657281606, 2.4812872199686353, 2.79910056294284, 2.399369520048822, 2.2329130795787933, 2.215968848119246, 2.6492615928987107, 2.0827933665191267, 5.932548510936158, 2.265989771419754]",006637,001,2022-11-04_11h32.24.680,untitled,2022.2.2,59.98129404691774,
0.4,400,unexp,2,1,25,1,367.6144431687412,368.61445012110335,368.61445012110335,368.61445012110335,space,1.0612070281817978,370.0978623803032,370.39781384619255,370.39781384619255,370.39781384619255,370.39781384619255,230,26,"[64.85013024092268, 9.732799193261144, 34.917669793243476, 24.8494535443142, 3.4327584060683876, 3.1316251047819605, 4.366286869039868, 5.599688269312082, 2.8653264498320823, 3.7640944250001667, 5.5826251855619375, 9.33276522600454, 2.099304565119837, 2.515198526364202, 3.432824619043913, 2.6829163240145135, 2.4812835782549882, 2.7990972522939046, 2.3993662093998864, 2.232909437865146, 2.2159655374703107, 2.649257620120352, 2.0827900558701913, 5.932544869222511, 2.2659864607708187, 2.699379518207479]","[64.85013388263633, 9.732802503909625, 34.91767310389196, 24.849456854963137, 3.4327620477820346, 3.131629077560774, 4.366290179688804, 5.599691579961018, 2.8653300915457294, 3.7640980667138138, 5.582628496210873, 9.332768536653475, 2.0993078757687726, 2.515202168077849, 3.4328279296928486, 2.6829199657281606, 2.4812872199686353, 2.79910056294284, 2.399369520048822, 2.2329130795787933, 2.215968848119246, 2.6492615928987107, 2.0827933665191267, 5.932548510936158, 2.265989771419754, 2.6993828288564146]",006637,001,2022-11-04_11h32.24.680,untitled,2022.2.2,59.98129404691774,
0.7,400,unexp,2,2,26,2,373.09786542610027,374.0832707620716,374.0832707620716,374.09989088101656,space,0.36060124566984086,375.1645408328797,,375.46466246611544,375.46466246611544,375.46466246611544,890 ,27,"[64.85013024092268, 9.732799193261144, 34.917669793243476, 24.8494535443142, 3.4327584060683876, 3.1316251047819605, 4.366286869039868, 5.599688269312082, 2.8653264498320823, 3.7640944250001667, 5.5826251855619375, 9.33276522600454, 2.099304565119837, 2.515198526364202, 3.432824619043913, 2.6829163240145135, 2.4812835782549882, 2.7990972522939046, 2.3993662093998864, 2.232909437865146, 2.2159655374703107, 2.649257620120352, 2.0827900558701913, 5.932544869222511, 2.2659864607708187, 2.699379518207479, 3.782936651397904]","[64.85013388263633, 9.732802503909625, 34.91767310389196, 24.849456854963137, 3.4327620477820346, 3.131629077560774, 4.366290179688804, 5.599691579961018, 2.8653300915457294, 3.7640980667138138, 5.582628496210873, 9.332768536653475, 2.0993078757687726, 2.515202168077849, 3.4328279296928486, 2.6829199657281606, 2.4812872199686353, 2.79910056294284, 2.399369520048822, 2.2329130795787933, 2.215968848119246, 2.6492615928987107, 2.0827933665191267, 5.932548510936158, 2.265989771419754, 2.6993828288564146, 3.782940293111551]",006637,001,2022-11-04_11h32.24.680,untitled,2022.2.2,59.98129404691774,
0.4,1000,exp,2,3,27,7,379.2479808353164,380.2480798237143,380.2480798237143,380.2480798237143,space,1.2831423275106317,381.9312999990727,382.2312471611185,382.2312471611185,382.2312471611185,382.2312471611185,567,28,"[64.85013024092268, 9.732799193261144, 34.917669793243476, 24.8494535443142, 3.4327584060683876, 3.1316251047819605, 4.366286869039868, 5.599688269312082, 2.8653264498320823, 3.7640944250001667, 5.5826251855619375, 9.33276522600454, 2.099304565119837, 2.515198526364202, 3.432824619043913, 2.6829163240145135, 2.4812835782549882, 2.7990972522939046, 2.3993662093998864, 2.232909437865146, 2.2159655374703107, 2.649257620120352, 2.0827900558701913, 5.932544869222511, 2.2659864607708187, 2.699379518207479, 3.782936651397904, 3.1158561536353773]","[64.85013388263633, 9.732802503909625, 34.91767310389196, 24.849456854963137, 3.4327620477820346, 3.131629077560774, 4.366290179688804, 5.599691579961018, 2.8653300915457294, 3.7640980667138138, 5.582628496210873, 9.332768536653475, 2.0993078757687726, 2.515202168077849, 3.4328279296928486, 2.6829199657281606, 2.4812872199686353, 2.79910056294284, 2.399369520048822, 2.2329130795787933, 2.215968848119246, 2.6492615928987107, 2.0827933665191267, 5.932548510936158, 2.265989771419754, 2.6993828288564146, 3.782940293111551, 3.115859464283858]",006637,001,2022-11-04_11h32.24.680,untitled,2022.2.2,59.98129404691774,
0.4,1000,exp,2,4,28,4,385.34801771594357,386.3479478612544,386.3479478612544,386.3479478612544,space,0.7432390779104026,387.4979248191391,387.7980083799139,387.7980083799139,387.7980083799139,387.7980083799139,780,29,"[64.85013024092268, 9.732799193261144, 34.917669793243476, 24.8494535443142, 3.4327584060683876, 3.1316251047819605, 4.366286869039868, 5.599688269312082, 2.8653264498320823, 3.7640944250001667, 5.5826251855619375, 9.33276522600454, 2.099304565119837, 2.515198526364202, 3.432824619043913, 2.6829163240145135, 2.4812835782549882, 2.7990972522939046, 2.3993662093998864, 2.232909437865146, 2.2159655374703107, 2.649257620120352, 2.0827900558701913, 5.932544869222511, 2.2659864607708187, 2.699379518207479, 3.782936651397904, 3.1158561536353773, 2.515837150511288]","[64.85013388263633, 9.732802503909625, 34.91767310389196, 24.849456854963137, 3.4327620477820346, 3.131629077560774, 4.366290179688804, 5.599691579961018, 2.8653300915457294, 3.7640980667138138, 5.582628496210873, 9.332768536653475, 2.0993078757687726, 2.515202168077849, 3.4328279296928486, 2.6829199657281606, 2.4812872199686353, 2.79910056294284, 2.399369520048822, 2.2329130795787933, 2.215968848119246, 2.6492615928987107, 2.0827933665191267, 5.932548510936158, 2.265989771419754, 2.6993828288564146, 3.782940293111551, 3.115859464283858, 2.515840461159769]",006637,001,2022-11-04_11h32.24.680,untitled,2022.2.2,59.98129404691774,
0.1,1000,exp,2,5,29,9,390.3147728431454,391.3146698819687,391.3146698819687,391.3146698819687,space,2.00091912092239,393.4316015991755,393.73148718315406,393.73148718315406,393.73148718315406,393.73148718315406,"679
",30,"[64.85013024092268, 9.732799193261144, 34.917669793243476, 24.8494535443142, 3.4327584060683876, 3.1316251047819605, 4.366286869039868, 5.599688269312082, 2.8653264498320823, 3.7640944250001667, 5.5826251855619375, 9.33276522600454, 2.099304565119837, 2.515198526364202, 3.432824619043913, 2.6829163240145135, 2.4812835782549882, 2.7990972522939046, 2.3993662093998864, 2.232909437865146, 2.2159655374703107, 2.649257620120352, 2.0827900558701913, 5.932544869222511, 2.2659864607708187, 2.699379518207479, 3.782936651397904, 3.1158561536353773, 2.515837150511288, 2.932293590981317]","[64.85013388263633, 9.732802503909625, 34.91767310389196, 24.849456854963137, 3.4327620477820346, 3.131629077560774, 4.366290179688804, 5.599691579961018, 2.8653300915457294, 3.7640980667138138, 5.582628496210873, 9.332768536653475, 2.0993078757687726, 2.515202168077849, 3.4328279296928486, 2.6829199657281606, 2.4812872199686353, 2.79910056294284, 2.399369520048822, 2.2329130795787933, 2.215968848119246, 2.6492615928987107, 2.0827933665191267, 5.932548510936158, 2.265989771419754, 2.6993828288564146, 3.782940293111551, 3.115859464283858, 2.515840461159769, 2.9322969016302523]",006637,001,2022-11-04_11h32.24.680,untitled,2022.2.2,59.98129404691774,
0.1,1000,exp,2,6,30,3,396.6648573971147,397.64828561364175,397.64828561364175,397.6650103490879,space,0.9223306094031614,398.6980515507741,,398.99815961034983,398.99815961034983,398.99815961034983,"560
",31,"[64.85013024092268, 9.732799193261144, 34.917669793243476, 24.8494535443142, 3.4327584060683876, 3.1316251047819605, 4.366286869039868, 5.599688269312082, 2.8653264498320823, 3.7640944250001667, 5.5826251855619375, 9.33276522600454, 2.099304565119837, 2.515198526364202, 3.432824619043913, 2.6829163240145135, 2.4812835782549882, 2.7990972522939046, 2.3993662093998864, 2.232909437865146, 2.2159655374703107, 2.649257620120352, 2.0827900558701913, 5.932544869222511, 2.2659864607708187, 2.699379518207479, 3.782936651397904, 3.1158561536353773, 2.515837150511288, 2.932293590981317, 2.74896840184374]","[64.85013388263633, 9.732802503909625, 34.91767310389196, 24.849456854963137, 3.4327620477820346, 3.131629077560774, 4.366290179688804, 5.599691579961018, 2.8653300915457294, 3.7640980667138138, 5.582628496210873, 9.332768536653475, 2.0993078757687726, 2.515202168077849, 3.4328279296928486, 2.6829199657281606, 2.4812872199686353, 2.79910056294284, 2.399369520048822, 2.2329130795787933, 2.215968848119246, 2.6492615928987107, 2.0827933665191267, 5.932548510936158, 2.265989771419754, 2.6993828288564146, 3.782940293111551, 3.115859464283858, 2.515840461159769, 2.9322969016302523, 2.7489717124926756]",006637,001,2022-11-04_11h32.24.680,untitled,2022.2.2,59.98129404691774,
0.7,1000,exp,2,7,31,8,401.7481384221978,402.73275085778914,402.73275085778914,402.7493994483134,space,0.5900494002480627,404.0481615967389,404.3481839105116,404.3481839105116,404.3481839105116,404.3481839105116,"890
",32,"[64.85013024092268, 9.732799193261144, 34.917669793243476, 24.8494535443142, 3.4327584060683876, 3.1316251047819605, 4.366286869039868, 5.599688269312082, 2.8653264498320823, 3.7640944250001667, 5.5826251855619375, 9.33276522600454, 2.099304565119837, 2.515198526364202, 3.432824619043913, 2.6829163240145135, 2.4812835782549882, 2.7990972522939046, 2.3993662093998864, 2.232909437865146, 2.2159655374703107, 2.649257620120352, 2.0827900558701913, 5.932544869222511, 2.2659864607708187, 2.699379518207479, 3.782936651397904, 3.1158561536353773, 2.515837150511288, 2.932293590981317, 2.74896840184374, 6.499506382268919]","[64.85013388263633, 9.732802503909625, 34.91767310389196, 24.849456854963137, 3.4327620477820346, 3.131629077560774, 4.366290179688804, 5.599691579961018, 2.8653300915457294, 3.7640980667138138, 5.582628496210873, 9.332768536653475, 2.0993078757687726, 2.515202168077849, 3.4328279296928486, 2.6829199657281606, 2.4812872199686353, 2.79910056294284, 2.399369520048822, 2.2329130795787933, 2.215968848119246, 2.6492615928987107, 2.0827933665191267, 5.932548510936158, 2.265989771419754, 2.6993828288564146, 3.782940293111551, 3.115859464283858, 2.515840461159769, 2.9322969016302523, 2.7489717124926756, 6.499509692917854]",006637,001,2022-11-04_11h32.24.680,untitled,2022.2.2,59.98129404691774,
0.1,400,unexp,2,8,32,0,410.8481474933751,411.84818655903064,411.84818655903064,411.84818655903064,space,6.650147938398277,418.61497711017427,418.9150378274726,418.9150378274726,418.9150378274726,418.9150378274726,560,33,"[64.85013024092268, 9.732799193261144, 34.917669793243476, 24.8494535443142, 3.4327584060683876, 3.1316251047819605, 4.366286869039868, 5.599688269312082, 2.8653264498320823, 3.7640944250001667, 5.5826251855619375, 9.33276522600454, 2.099304565119837, 2.515198526364202, 3.432824619043913, 2.6829163240145135, 2.4812835782549882, 2.7990972522939046, 2.3993662093998864, 2.232909437865146, 2.2159655374703107, 2.649257620120352, 2.0827900558701913, 5.932544869222511, 2.2659864607708187, 2.699379518207479, 3.782936651397904, 3.1158561536353773, 2.515837150511288, 2.932293590981317, 2.74896840184374, 6.499506382268919, 2.6160716768699785]","[64.85013388263633, 9.732802503909625, 34.91767310389196, 24.849456854963137, 3.4327620477820346, 3.131629077560774, 4.366290179688804, 5.599691579961018, 2.8653300915457294, 3.7640980667138138, 5.582628496210873, 9.332768536653475, 2.0993078757687726, 2.515202168077849, 3.4328279296928486, 2.6829199657281606, 2.4812872199686353, 2.79910056294284, 2.399369520048822, 2.2329130795787933, 2.215968848119246, 2.6492615928987107, 2.0827933665191267, 5.932548510936158, 2.265989771419754, 2.6993828288564146, 3.782940293111551, 3.115859464283858, 2.515840461159769, 2.9322969016302523, 2.7489717124926756, 6.499509692917854, 2.6160753185836256]",006637,001,2022-11-04_11h32.24.680,untitled,2022.2.2,59.98129404691774,
0.7,1000,exp,2,9,33,5,421.5317630264094,422.53172561607835,422.53172561607835,422.53172561607835,space,2.0867569600486604,425.3316987998234,,425.63172972128314,425.63172972128314,425.63172972128314,"670
",34,"[64.85013024092268, 9.732799193261144, 34.917669793243476, 24.8494535443142, 3.4327584060683876, 3.1316251047819605, 4.366286869039868, 5.599688269312082, 2.8653264498320823, 3.7640944250001667, 5.5826251855619375, 9.33276522600454, 2.099304565119837, 2.515198526364202, 3.432824619043913, 2.6829163240145135, 2.4812835782549882, 2.7990972522939046, 2.3993662093998864, 2.232909437865146, 2.2159655374703107, 2.649257620120352, 2.0827900558701913, 5.932544869222511, 2.2659864607708187, 2.699379518207479, 3.782936651397904, 3.1158561536353773, 2.515837150511288, 2.932293590981317, 2.74896840184374, 6.499506382268919, 2.6160716768699785, 3.848943704404064]","[64.85013388263633, 9.732802503909625, 34.91767310389196, 24.849456854963137, 3.4327620477820346, 3.131629077560774, 4.366290179688804, 5.599691579961018, 2.8653300915457294, 3.7640980667138138, 5.582628496210873, 9.332768536653475, 2.0993078757687726, 2.515202168077849, 3.4328279296928486, 2.6829199657281606, 2.4812872199686353, 2.79910056294284, 2.399369520048822, 2.2329130795787933, 2.215968848119246, 2.6492615928987107, 2.0827933665191267, 5.932548510936158, 2.265989771419754, 2.6993828288564146, 3.782940293111551, 3.115859464283858, 2.515840461159769, 2.9322969016302523, 2.7489717124926756, 6.499509692917854, 2.6160753185836256, 3.8489473461177113]",006637,001,2022-11-04_11h32.24.680,untitled,2022.2.2,59.98129404691774,
0.7,1000,exp,2,10,34,11,429.48189008910913,430.48174905547194,430.48174905547194,430.48174905547194,space,1.2479481447176113,432.44851173095293,432.74855854352654,432.74855854352654,432.74855854352654,432.74855854352654,"890
",35,"[64.85013024092268, 9.732799193261144, 34.917669793243476, 24.8494535443142, 3.4327584060683876, 3.1316251047819605, 4.366286869039868, 5.599688269312082, 2.8653264498320823, 3.7640944250001667, 5.5826251855619375, 9.33276522600454, 2.099304565119837, 2.515198526364202, 3.432824619043913, 2.6829163240145135, 2.4812835782549882, 2.7990972522939046, 2.3993662093998864, 2.232909437865146, 2.2159655374703107, 2.649257620120352, 2.0827900558701913, 5.932544869222511, 2.2659864607708187, 2.699379518207479, 3.782936651397904, 3.1158561536353773, 2.515837150511288, 2.932293590981317, 2.74896840184374, 6.499506382268919, 2.6160716768699785, 3.848943704404064, 3.4669014578771566]","[64.85013388263633, 9.732802503909625, 34.91767310389196, 24.849456854963137, 3.4327620477820346, 3.131629077560774, 4.366290179688804, 5.599691579961018, 2.8653300915457294, 3.7640980667138138, 5.582628496210873, 9.332768536653475, 2.0993078757687726, 2.515202168077849, 3.4328279296928486, 2.6829199657281606, 2.4812872199686353, 2.79910056294284, 2.399369520048822, 2.2329130795787933, 2.215968848119246, 2.6492615928987107, 2.0827933665191267, 5.932548510936158, 2.265989771419754, 2.6993828288564146, 3.782940293111551, 3.115859464283858, 2.515840461159769, 2.9322969016302523, 2.7489717124926756, 6.499509692917854, 2.6160753185836256, 3.8489473461177113, 3.4669047685256373]",006637,001,2022-11-04_11h32.24.680,untitled,2022.2.2,59.98129404691774,
0.4,1000,exp,2,11,35,10,436.2160069205802,437.2152510994665,437.2152510994665,437.2152510994665,space,0.45867160092893755,438.08191829583683,,438.3819310087283,438.3819310087283,438.3819310087283,450,36,"[64.85013024092268, 9.732799193261144, 34.917669793243476, 24.8494535443142, 3.4327584060683876, 3.1316251047819605, 4.366286869039868, 5.599688269312082, 2.8653264498320823, 3.7640944250001667, 5.5826251855619375, 9.33276522600454, 2.099304565119837, 2.515198526364202, 3.432824619043913, 2.6829163240145135, 2.4812835782549882, 2.7990972522939046, 2.3993662093998864, 2.232909437865146, 2.2159655374703107, 2.649257620120352, 2.0827900558701913, 5.932544869222511, 2.2659864607708187, 2.699379518207479, 3.782936651397904, 3.1158561536353773, 2.515837150511288, 2.932293590981317, 2.74896840184374, 6.499506382268919, 2.6160716768699785, 3.848943704404064, 3.4669014578771566, 2.8673254195587106]","[64.85013388263633, 9.732802503909625, 34.91767310389196, 24.849456854963137, 3.4327620477820346, 3.131629077560774, 4.366290179688804, 5.599691579961018, 2.8653300915457294, 3.7640980667138138, 5.582628496210873, 9.332768536653475, 2.0993078757687726, 2.515202168077849, 3.4328279296928486, 2.6829199657281606, 2.4812872199686353, 2.79910056294284, 2.399369520048822, 2.2329130795787933, 2.215968848119246, 2.6492615928987107, 2.0827933665191267, 5.932548510936158, 2.265989771419754, 2.6993828288564146, 3.782940293111551, 3.115859464283858, 2.515840461159769, 2.9322969016302523, 2.7489717124926756, 6.499509692917854, 2.6160753185836256, 3.8489473461177113, 3.4669047685256373, 2.8673293923370693]",006637,001,2022-11-04_11h32.24.680,untitled,2022.2.2,59.98129404691774,
0.4,1000,exp,3,0,36,4,441.2501724848007,442.2486528970162,442.2486528970162,442.2653180407842,space,0.6963841280266934,443.3652717579145,,443.6657347190385,443.6657347190385,443.6657347190385,"560
",37,"[64.85013024092268, 9.732799193261144, 34.917669793243476, 24.8494535443142, 3.4327584060683876, 3.1316251047819605, 4.366286869039868, 5.599688269312082, 2.8653264498320823, 3.7640944250001667, 5.5826251855619375, 9.33276522600454, 2.099304565119837, 2.515198526364202, 3.432824619043913, 2.6829163240145135, 2.4812835782549882, 2.7990972522939046, 2.3993662093998864, 2.232909437865146, 2.2159655374703107, 2.649257620120352, 2.0827900558701913, 5.932544869222511, 2.2659864607708187, 2.699379518207479, 3.782936651397904, 3.1158561536353773, 2.515837150511288, 2.932293590981317, 2.74896840184374, 6.499506382268919, 2.6160716768699785, 3.848943704404064, 3.4669014578771566, 2.8673254195587106, 4.448321103796843]","[64.85013388263633, 9.732802503909625, 34.91767310389196, 24.849456854963137, 3.4327620477820346, 3.131629077560774, 4.366290179688804, 5.599691579961018, 2.8653300915457294, 3.7640980667138138, 5.582628496210873, 9.332768536653475, 2.0993078757687726, 2.515202168077849, 3.4328279296928486, 2.6829199657281606, 2.4812872199686353, 2.79910056294284, 2.399369520048822, 2.2329130795787933, 2.215968848119246, 2.6492615928987107, 2.0827933665191267, 5.932548510936158, 2.265989771419754, 2.6993828288564146, 3.782940293111551, 3.115859464283858, 2.515840461159769, 2.9322969016302523, 2.7489717124926756, 6.499509692917854, 2.6160753185836256, 3.8489473461177113, 3.4669047685256373, 2.8673293923370693, 4.4483244144457785]",006637,001,2022-11-04_11h32.24.680,untitled,2022.2.2,59.98129404691774,
0.1,1000,exp,3,1,37,3,448.11530459955065,449.1152767901008,449.1152767901008,449.1152767901008,space,1.5740900867972414,450.79999768254555,,451.09877353705724,451.09877353705724,451.09877353705724,456,38,"[64.85013024092268, 9.732799193261144, 34.917669793243476, 24.8494535443142, 3.4327584060683876, 3.1316251047819605, 4.366286869039868, 5.599688269312082, 2.8653264498320823, 3.7640944250001667, 5.5826251855619375, 9.33276522600454, 2.099304565119837, 2.515198526364202, 3.432824619043913, 2.6829163240145135, 2.4812835782549882, 2.7990972522939046, 2.3993662093998864, 2.232909437865146, 2.2159655374703107, 2.649257620120352, 2.0827900558701913, 5.932544869222511, 2.2659864607708187, 2.699379518207479, 3.782936651397904, 3.1158561536353773, 2.515837150511288, 2.932293590981317, 2.74896840184374, 6.499506382268919, 2.6160716768699785, 3.848943704404064, 3.4669014578771566, 2.8673254195587106, 4.448321103796843, 4.349391304117489]","[64.85013388263633, 9.732802503909625, 34.91767310389196, 24.849456854963137, 3.4327620477820346, 3.131629077560774, 4.366290179688804, 5.599691579961018, 2.8653300915457294, 3.7640980667138138, 5.582628496210873, 9.332768536653475, 2.0993078757687726, 2.515202168077849, 3.4328279296928486, 2.6829199657281606, 2.4812872199686353, 2.79910056294284, 2.399369520048822, 2.2329130795787933, 2.215968848119246, 2.6492615928987107, 2.0827933665191267, 5.932548510936158, 2.265989771419754, 2.6993828288564146, 3.782940293111551, 3.115859464283858, 2.515840461159769, 2.9322969016302523, 2.7489717124926756, 6.499509692917854, 2.6160753185836256, 3.8489473461177113, 3.4669047685256373, 2.8673293923370693, 4.4483244144457785, 4.34939461476597]",006637,001,2022-11-04_11h32.24.680,untitled,2022.2.2,59.98129404691774,
0.7,1000,exp,3,2,38,11,455.4492315322077,456.44875844049875,456.44875844049875,456.44875844049875,space,0.46474068225097653,457.63205840249265,457.93220387239944,457.93220387239944,457.93220387239944,457.93220387239944,560,39,"[64.85013024092268, 9.732799193261144, 34.917669793243476, 24.8494535443142, 3.4327584060683876, 3.1316251047819605, 4.366286869039868, 5.599688269312082, 2.8653264498320823, 3.7640944250001667, 5.5826251855619375, 9.33276522600454, 2.099304565119837, 2.515198526364202, 3.432824619043913, 2.6829163240145135, 2.4812835782549882, 2.7990972522939046, 2.3993662093998864, 2.232909437865146, 2.2159655374703107, 2.649257620120352, 2.0827900558701913, 5.932544869222511, 2.2659864607708187, 2.699379518207479, 3.782936651397904, 3.1158561536353773, 2.515837150511288, 2.932293590981317, 2.74896840184374, 6.499506382268919, 2.6160716768699785, 3.848943704404064, 3.4669014578771566, 2.8673254195587106, 4.448321103796843, 4.349391304117489, 3.182801113437108]","[64.85013388263633, 9.732802503909625, 34.91767310389196, 24.849456854963137, 3.4327620477820346, 3.131629077560774, 4.366290179688804, 5.599691579961018, 2.8653300915457294, 3.7640980667138138, 5.582628496210873, 9.332768536653475, 2.0993078757687726, 2.515202168077849, 3.4328279296928486, 2.6829199657281606, 2.4812872199686353, 2.79910056294284, 2.399369520048822, 2.2329130795787933, 2.215968848119246, 2.6492615928987107, 2.0827933665191267, 5.932548510936158, 2.265989771419754, 2.6993828288564146, 3.782940293111551, 3.115859464283858, 2.515840461159769, 2.9322969016302523, 2.7489717124926756, 6.499509692917854, 2.6160753185836256, 3.8489473461177113, 3.4669047685256373, 2.8673293923370693, 4.4483244144457785, 4.34939461476597, 3.1828047551507552]",006637,001,2022-11-04_11h32.24.680,untitled,2022.2.2,59.98129404691774,
0.4,1000,exp,3,3,39,10,461.1154353701768,462.1155247576935,462.1155247576935,462.1155247576935,space,1.1653802333798922,463.6987646645186,463.9987727425014,463.9987727425014,463.9987727425014,463.9987727425014,"670
",40,"[64.85013024092268, 9.732799193261144, 34.917669793243476, 24.8494535443142, 3.4327584060683876, 3.1316251047819605, 4.366286869039868, 5.599688269312082, 2.8653264498320823, 3.7640944250001667, 5.5826251855619375, 9.33276522600454, 2.099304565119837, 2.515198526364202, 3.432824619043913, 2.6829163240145135, 2.4812835782549882, 2.7990972522939046, 2.3993662093998864, 2.232909437865146, 2.2159655374703107, 2.649257620120352, 2.0827900558701913, 5.932544869222511, 2.2659864607708187, 2.699379518207479, 3.782936651397904, 3.1158561536353773, 2.515837150511288, 2.932293590981317, 2.74896840184374, 6.499506382268919, 2.6160716768699785, 3.848943704404064, 3.4669014578771566, 2.8673254195587106, 4.448321103796843, 4.349391304117489, 3.182801113437108, 3.066057043802175]","[64.85013388263633, 9.732802503909625, 34.91767310389196, 24.849456854963137, 3.4327620477820346, 3.131629077560774, 4.366290179688804, 5.599691579961018, 2.8653300915457294, 3.7640980667138138, 5.582628496210873, 9.332768536653475, 2.0993078757687726, 2.515202168077849, 3.4328279296928486, 2.6829199657281606, 2.4812872199686353, 2.79910056294284, 2.399369520048822, 2.2329130795787933, 2.215968848119246, 2.6492615928987107, 2.0827933665191267, 5.932548510936158, 2.265989771419754, 2.6993828288564146, 3.782940293111551, 3.115859464283858, 2.515840461159769, 2.9322969016302523, 2.7489717124926756, 6.499509692917854, 2.6160753185836256, 3.8489473461177113, 3.4669047685256373, 2.8673293923370693, 4.4483244144457785, 4.34939461476597, 3.1828047551507552, 3.0660603544511105]",006637,001,2022-11-04_11h32.24.680,untitled,2022.2.2,59.98129404691774,
0.4,1000,exp,3,4,40,7,467.0655299885184,468.06550383439344,468.06550383439344,468.06550383439344,space,3.463535606098958,471.9489864779859,,472.2489313225774,472.2489313225774,472.2489313225774,670,41,"[64.85013024092268, 9.732799193261144, 34.917669793243476, 24.8494535443142, 3.4327584060683876, 3.1316251047819605, 4.366286869039868, 5.599688269312082, 2.8653264498320823, 3.7640944250001667, 5.5826251855619375, 9.33276522600454, 2.099304565119837, 2.515198526364202, 3.432824619043913, 2.6829163240145135, 2.4812835782549882, 2.7990972522939046, 2.3993662093998864, 2.232909437865146, 2.2159655374703107, 2.649257620120352, 2.0827900558701913, 5.932544869222511, 2.2659864607708187, 2.699379518207479, 3.782936651397904, 3.1158561536353773, 2.515837150511288, 2.932293590981317, 2.74896840184374, 6.499506382268919, 2.6160716768699785, 3.848943704404064, 3.4669014578771566, 2.8673254195587106, 4.448321103796843, 4.349391304117489, 3.182801113437108, 3.066057043802175, 2.834344074402452]","[64.85013388263633, 9.732802503909625, 34.91767310389196, 24.849456854963137, 3.4327620477820346, 3.131629077560774, 4.366290179688804, 5.599691579961018, 2.8653300915457294, 3.7640980667138138, 5.582628496210873, 9.332768536653475, 2.0993078757687726, 2.515202168077849, 3.4328279296928486, 2.6829199657281606, 2.4812872199686353, 2.79910056294284, 2.399369520048822, 2.2329130795787933, 2.215968848119246, 2.6492615928987107, 2.0827933665191267, 5.932548510936158, 2.265989771419754, 2.6993828288564146, 3.782940293111551, 3.115859464283858, 2.515840461159769, 2.9322969016302523, 2.7489717124926756, 6.499509692917854, 2.6160753185836256, 3.8489473461177113, 3.4669047685256373, 2.8673293923370693, 4.4483244144457785, 4.34939461476597, 3.1828047551507552, 3.0660603544511105, 2.8343473850509326]",006637,001,2022-11-04_11h32.24.680,untitled,2022.2.2,59.98129404691774,
0.1,400,unexp,3,5,41,0,475.0841560295521,476.08226763549465,476.08226763549465,476.09893774523607,space,0.3899153851862138,476.58226425863285,,476.8823001460655,476.8823001460655,476.8823001460655,670,42,"[64.85013024092268, 9.732799193261144, 34.917669793243476, 24.8494535443142, 3.4327584060683876, 3.1316251047819605, 4.366286869039868, 5.599688269312082, 2.8653264498320823, 3.7640944250001667, 5.5826251855619375, 9.33276522600454, 2.099304565119837, 2.515198526364202, 3.432824619043913, 2.6829163240145135, 2.4812835782549882, 2.7990972522939046, 2.3993662093998864, 2.232909437865146, 2.2159655374703107, 2.649257620120352, 2.0827900558701913, 5.932544869222511, 2.2659864607708187, 2.699379518207479, 3.782936651397904, 3.1158561536353773, 2.515837150511288, 2.932293590981317, 2.74896840184374, 6.499506382268919, 2.6160716768699785, 3.848943704404064, 3.4669014578771566, 2.8673254195587106, 4.448321103796843, 4.349391304117489, 3.182801113437108, 3.066057043802175, 2.834344074402452, 2.466232706826304]","[64.85013388263633, 9.732802503909625, 34.91767310389196, 24.849456854963137, 3.4327620477820346, 3.131629077560774, 4.366290179688804, 5.599691579961018, 2.8653300915457294, 3.7640980667138138, 5.582628496210873, 9.332768536653475, 2.0993078757687726, 2.515202168077849, 3.4328279296928486, 2.6829199657281606, 2.4812872199686353, 2.79910056294284, 2.399369520048822, 2.2329130795787933, 2.215968848119246, 2.6492615928987107, 2.0827933665191267, 5.932548510936158, 2.265989771419754, 2.6993828288564146, 3.782940293111551, 3.115859464283858, 2.515840461159769, 2.9322969016302523, 2.7489717124926756, 6.499509692917854, 2.6160753185836256, 3.8489473461177113, 3.4669047685256373, 2.8673293923370693, 4.4483244144457785, 4.34939461476597, 3.1828047551507552, 3.0660603544511105, 2.8343473850509326, 2.4662360174747846]",006637,001,2022-11-04_11h32.24.680,untitled,2022.2.2,59.98129404691774,
0.1,1000,exp,3,6,42,9,479.34926516839914,480.34897217598336,480.34897217598336,480.34897217598336,space,2.3234067688913456,482.7823052444648,,483.0824020478349,483.0824020478349,483.0824020478349,670,43,"[64.85013024092268, 9.732799193261144, 34.917669793243476, 24.8494535443142, 3.4327584060683876, 3.1316251047819605, 4.366286869039868, 5.599688269312082, 2.8653264498320823, 3.7640944250001667, 5.5826251855619375, 9.33276522600454, 2.099304565119837, 2.515198526364202, 3.432824619043913, 2.6829163240145135, 2.4812835782549882, 2.7990972522939046, 2.3993662093998864, 2.232909437865146, 2.2159655374703107, 2.649257620120352, 2.0827900558701913, 5.932544869222511, 2.2659864607708187, 2.699379518207479, 3.782936651397904, 3.1158561536353773, 2.515837150511288, 2.932293590981317, 2.74896840184374, 6.499506382268919, 2.6160716768699785, 3.848943704404064, 3.4669014578771566, 2.8673254195587106, 4.448321103796843, 4.349391304117489, 3.182801113437108, 3.066057043802175, 2.834344074402452, 2.466232706826304, 2.065999107448988]","[64.85013388263633, 9.732802503909625, 34.91767310389196, 24.849456854963137, 3.4327620477820346, 3.131629077560774, 4.366290179688804, 5.599691579961018, 2.8653300915457294, 3.7640980667138138, 5.582628496210873, 9.332768536653475, 2.0993078757687726, 2.515202168077849, 3.4328279296928486, 2.6829199657281606, 2.4812872199686353, 2.79910056294284, 2.399369520048822, 2.2329130795787933, 2.215968848119246, 2.6492615928987107, 2.0827933665191267, 5.932548510936158, 2.265989771419754, 2.6993828288564146, 3.782940293111551, 3.115859464283858, 2.515840461159769, 2.9322969016302523, 2.7489717124926756, 6.499509692917854, 2.6160753185836256, 3.8489473461177113, 3.4669047685256373, 2.8673293923370693, 4.4483244144457785, 4.34939461476597, 3.1828047551507552, 3.0660603544511105, 2.8343473850509326, 2.4662360174747846, 2.066002749162635]",006637,001,2022-11-04_11h32.24.680,untitled,2022.2.2,59.98129404691774,
0.7,1000,exp,3,7,43,8,485.1490086593326,486.1490464007288,486.1490464007288,486.1490464007288,space,1.1554863595365532,488.0157165766829,488.31571207420075,488.31571207420075,488.31571207420075,488.31571207420075,450,44,"[64.85013024092268, 9.732799193261144, 34.917669793243476, 24.8494535443142, 3.4327584060683876, 3.1316251047819605, 4.366286869039868, 5.599688269312082, 2.8653264498320823, 3.7640944250001667, 5.5826251855619375, 9.33276522600454, 2.099304565119837, 2.515198526364202, 3.432824619043913, 2.6829163240145135, 2.4812835782549882, 2.7990972522939046, 2.3993662093998864, 2.232909437865146, 2.2159655374703107, 2.649257620120352, 2.0827900558701913, 5.932544869222511, 2.2659864607708187, 2.699379518207479, 3.782936651397904, 3.1158561536353773, 2.515837150511288, 2.932293590981317, 2.74896840184374, 6.499506382268919, 2.6160716768699785, 3.848943704404064, 3.4669014578771566, 2.8673254195587106, 4.448321103796843, 4.349391304117489, 3.182801113437108, 3.066057043802175, 2.834344074402452, 2.466232706826304, 2.065999107448988, 3.0993770683280673]","[64.85013388263633, 9.732802503909625, 34.91767310389196, 24.849456854963137, 3.4327620477820346, 3.131629077560774, 4.366290179688804, 5.599691579961018, 2.8653300915457294, 3.7640980667138138, 5.582628496210873, 9.332768536653475, 2.0993078757687726, 2.515202168077849, 3.4328279296928486, 2.6829199657281606, 2.4812872199686353, 2.79910056294284, 2.399369520048822, 2.2329130795787933, 2.215968848119246, 2.6492615928987107, 2.0827933665191267, 5.932548510936158, 2.265989771419754, 2.6993828288564146, 3.782940293111551, 3.115859464283858, 2.515840461159769, 2.9322969016302523, 2.7489717124926756, 6.499509692917854, 2.6160753185836256, 3.8489473461177113, 3.4669047685256373, 2.8673293923370693, 4.4483244144457785, 4.34939461476597, 3.1828047551507552, 3.0660603544511105, 2.8343473850509326, 2.4662360174747846, 2.066002749162635, 3.099380378976548]",006637,001,2022-11-04_11h32.24.680,untitled,2022.2.2,59.98129404691774,
0.4,400,unexp,3,8,44,1,491.41575987996885,492.4157055853293,492.4157055853293,492.4157055853293,space,1.8240602909586414,494.66593991304916,,494.96586588694254,494.96586588694254,494.96586588694254,"450
",45,"[64.85013024092268, 9.732799193261144, 34.917669793243476, 24.8494535443142, 3.4327584060683876, 3.1316251047819605, 4.366286869039868, 5.599688269312082, 2.8653264498320823, 3.7640944250001667, 5.5826251855619375, 9.33276522600454, 2.099304565119837, 2.515198526364202, 3.432824619043913, 2.6829163240145135, 2.4812835782549882, 2.7990972522939046, 2.3993662093998864, 2.232909437865146, 2.2159655374703107, 2.649257620120352, 2.0827900558701913, 5.932544869222511, 2.2659864607708187, 2.699379518207479, 3.782936651397904, 3.1158561536353773, 2.515837150511288, 2.932293590981317, 2.74896840184374, 6.499506382268919, 2.6160716768699785, 3.848943704404064, 3.4669014578771566, 2.8673254195587106, 4.448321103796843, 4.349391304117489, 3.182801113437108, 3.066057043802175, 2.834344074402452, 2.466232706826304, 2.065999107448988, 3.0993770683280673, 3.349389979858188]","[64.85013388263633, 9.732802503909625, 34.91767310389196, 24.849456854963137, 3.4327620477820346, 3.131629077560774, 4.366290179688804, 5.599691579961018, 2.8653300915457294, 3.7640980667138138, 5.582628496210873, 9.332768536653475, 2.0993078757687726, 2.515202168077849, 3.4328279296928486, 2.6829199657281606, 2.4812872199686353, 2.79910056294284, 2.399369520048822, 2.2329130795787933, 2.215968848119246, 2.6492615928987107, 2.0827933665191267, 5.932548510936158, 2.265989771419754, 2.6993828288564146, 3.782940293111551, 3.115859464283858, 2.515840461159769, 2.9322969016302523, 2.7489717124926756, 6.499509692917854, 2.6160753185836256, 3.8489473461177113, 3.4669047685256373, 2.8673293923370693, 4.4483244144457785, 4.34939461476597, 3.1828047551507552, 3.0660603544511105, 2.8343473850509326, 2.4662360174747846, 2.066002749162635, 3.099380378976548, 3.3493932905066686]",006637,001,2022-11-04_11h32.24.680,untitled,2022.2.2,59.98129404691774,
0.7,1000,exp,3,9,45,5,498.31601566069276,499.3160543952836,499.3160543952836,499.3160543952836,space,0.019894104335890006,500.06605565333,500.36602102394363,500.36602102394363,500.36602102394363,500.36602102394363,"709
",46,"[64.85013024092268, 9.732799193261144, 34.917669793243476, 24.8494535443142, 3.4327584060683876, 3.1316251047819605, 4.366286869039868, 5.599688269312082, 2.8653264498320823, 3.7640944250001667, 5.5826251855619375, 9.33276522600454, 2.099304565119837, 2.515198526364202, 3.432824619043913, 2.6829163240145135, 2.4812835782549882, 2.7990972522939046, 2.3993662093998864, 2.232909437865146, 2.2159655374703107, 2.649257620120352, 2.0827900558701913, 5.932544869222511, 2.2659864607708187, 2.699379518207479, 3.782936651397904, 3.1158561536353773, 2.515837150511288, 2.932293590981317, 2.74896840184374, 6.499506382268919, 2.6160716768699785, 3.848943704404064, 3.4669014578771566, 2.8673254195587106, 4.448321103796843, 4.349391304117489, 3.182801113437108, 3.066057043802175, 2.834344074402452, 2.466232706826304, 2.065999107448988, 3.0993770683280673, 3.349389979858188, 2.9827247036637345]","[64.85013388263633, 9.732802503909625, 34.91767310389196, 24.849456854963137, 3.4327620477820346, 3.131629077560774, 4.366290179688804, 5.599691579961018, 2.8653300915457294, 3.7640980667138138, 5.582628496210873, 9.332768536653475, 2.0993078757687726, 2.515202168077849, 3.4328279296928486, 2.6829199657281606, 2.4812872199686353, 2.79910056294284, 2.399369520048822, 2.2329130795787933, 2.215968848119246, 2.6492615928987107, 2.0827933665191267, 5.932548510936158, 2.265989771419754, 2.6993828288564146, 3.782940293111551, 3.115859464283858, 2.515840461159769, 2.9322969016302523, 2.7489717124926756, 6.499509692917854, 2.6160753185836256, 3.8489473461177113, 3.4669047685256373, 2.8673293923370693, 4.4483244144457785, 4.34939461476597, 3.1828047551507552, 3.0660603544511105, 2.8343473850509326, 2.4662360174747846, 2.066002749162635, 3.099380378976548, 3.3493932905066686, 2.9827280143122152]",006637,001,2022-11-04_11h32.24.680,untitled,2022.2.2,59.98129404691774,
0.7,400,unexp,3,10,46,2,503.34945056473043,504.3495786868375,504.3495786868375,504.3495786868375,space,1.7295690780820223,506.78283395507304,,507.0829257924697,507.0829257924697,507.0829257924697,"130
",47,"[64.85013024092268, 9.732799193261144, 34.917669793243476, 24.8494535443142, 3.4327584060683876, 3.1316251047819605, 4.366286869039868, 5.599688269312082, 2.8653264498320823, 3.7640944250001667, 5.5826251855619375, 9.33276522600454, 2.099304565119837, 2.515198526364202, 3.432824619043913, 2.6829163240145135, 2.4812835782549882, 2.7990972522939046, 2.3993662093998864, 2.232909437865146, 2.2159655374703107, 2.649257620120352, 2.0827900558701913, 5.932544869222511, 2.2659864607708187, 2.699379518207479, 3.782936651397904, 3.1158561536353773, 2.515837150511288, 2.932293590981317, 2.74896840184374, 6.499506382268919, 2.6160716768699785, 3.848943704404064, 3.4669014578771566, 2.8673254195587106, 4.448321103796843, 4.349391304117489, 3.182801113437108, 3.066057043802175, 2.834344074402452, 2.466232706826304, 2.065999107448988, 3.0993770683280673, 3.349389979858188, 2.9827247036637345, 3.266130142927068]","[64.85013388263633, 9.732802503909625, 34.91767310389196, 24.849456854963137, 3.4327620477820346, 3.131629077560774, 4.366290179688804, 5.599691579961018, 2.8653300915457294, 3.7640980667138138, 5.582628496210873, 9.332768536653475, 2.0993078757687726, 2.515202168077849, 3.4328279296928486, 2.6829199657281606, 2.4812872199686353, 2.79910056294284, 2.399369520048822, 2.2329130795787933, 2.215968848119246, 2.6492615928987107, 2.0827933665191267, 5.932548510936158, 2.265989771419754, 2.6993828288564146, 3.782940293111551, 3.115859464283858, 2.515840461159769, 2.9322969016302523, 2.7489717124926756, 6.499509692917854, 2.6160753185836256, 3.8489473461177113, 3.4669047685256373, 2.8673293923370693, 4.4483244144457785, 4.34939461476597, 3.1828047551507552, 3.0660603544511105, 2.8343473850509326, 2.4662360174747846, 2.066002749162635, 3.099380378976548, 3.3493932905066686, 2.9827280143122152, 3.2661341157058814]",006637,001,2022-11-04_11h32.24.680,untitled,2022.2.2,59.98129404691774,
0.1,1000,exp,3,11,47,6,510.3497316388107,511.34969191102573,511.34969191102573,511.34969191102573,space,1.553703773813595,513.0331236368404,,513.333180712425,513.333180712425,513.333180712425,"120
",48,"[64.85013024092268, 9.732799193261144, 34.917669793243476, 24.8494535443142, 3.4327584060683876, 3.1316251047819605, 4.366286869039868, 5.599688269312082, 2.8653264498320823, 3.7640944250001667, 5.5826251855619375, 9.33276522600454, 2.099304565119837, 2.515198526364202, 3.432824619043913, 2.6829163240145135, 2.4812835782549882, 2.7990972522939046, 2.3993662093998864, 2.232909437865146, 2.2159655374703107, 2.649257620120352, 2.0827900558701913, 5.932544869222511, 2.2659864607708187, 2.699379518207479, 3.782936651397904, 3.1158561536353773, 2.515837150511288, 2.932293590981317, 2.74896840184374, 6.499506382268919, 2.6160716768699785, 3.848943704404064, 3.4669014578771566, 2.8673254195587106, 4.448321103796843, 4.349391304117489, 3.182801113437108, 3.066057043802175, 2.834344074402452, 2.466232706826304, 2.065999107448988, 3.0993770683280673, 3.349389979858188, 2.9827247036637345, 3.266130142927068, 2.815179721878849]","[64.85013388263633, 9.732802503909625, 34.91767310389196, 24.849456854963137, 3.4327620477820346, 3.131629077560774, 4.366290179688804, 5.599691579961018, 2.8653300915457294, 3.7640980667138138, 5.582628496210873, 9.332768536653475, 2.0993078757687726, 2.515202168077849, 3.4328279296928486, 2.6829199657281606, 2.4812872199686353, 2.79910056294284, 2.399369520048822, 2.2329130795787933, 2.215968848119246, 2.6492615928987107, 2.0827933665191267, 5.932548510936158, 2.265989771419754, 2.6993828288564146, 3.782940293111551, 3.115859464283858, 2.515840461159769, 2.9322969016302523, 2.7489717124926756, 6.499509692917854, 2.6160753185836256, 3.8489473461177113, 3.4669047685256373, 2.8673293923370693, 4.4483244144457785, 4.34939461476597, 3.1828047551507552, 3.0660603544511105, 2.8343473850509326, 2.4662360174747846, 2.066002749162635, 3.099380378976548, 3.3493932905066686, 2.9827280143122152, 3.2661341157058814, 2.8151830325277842]",006637,001,2022-11-04_11h32.24.680,untitled,2022.2.2,59.98129404691774,
0.1,400,unexp,4,0,48,0,516.149832679811,517.1498777046345,517.1498777046345,517.1498777046345,space,2.624763538970001,519.8833955735302,520.1833212163588,520.1833212163588,520.1833212163588,520.1833212163588,134,49,"[64.85013024092268, 9.732799193261144, 34.917669793243476, 24.8494535443142, 3.4327584060683876, 3.1316251047819605, 4.366286869039868, 5.599688269312082, 2.8653264498320823, 3.7640944250001667, 5.5826251855619375, 9.33276522600454, 2.099304565119837, 2.515198526364202, 3.432824619043913, 2.6829163240145135, 2.4812835782549882, 2.7990972522939046, 2.3993662093998864, 2.232909437865146, 2.2159655374703107, 2.649257620120352, 2.0827900558701913, 5.932544869222511, 2.2659864607708187, 2.699379518207479, 3.782936651397904, 3.1158561536353773, 2.515837150511288, 2.932293590981317, 2.74896840184374, 6.499506382268919, 2.6160716768699785, 3.848943704404064, 3.4669014578771566, 2.8673254195587106, 4.448321103796843, 4.349391304117489, 3.182801113437108, 3.066057043802175, 2.834344074402452, 2.466232706826304, 2.065999107448988, 3.0993770683280673, 3.349389979858188, 2.9827247036637345, 3.266130142927068, 2.815179721878849, 2.2661423923277653]","[64.85013388263633, 9.732802503909625, 34.91767310389196, 24.849456854963137, 3.4327620477820346, 3.131629077560774, 4.366290179688804, 5.599691579961018, 2.8653300915457294, 3.7640980667138138, 5.582628496210873, 9.332768536653475, 2.0993078757687726, 2.515202168077849, 3.4328279296928486, 2.6829199657281606, 2.4812872199686353, 2.79910056294284, 2.399369520048822, 2.2329130795787933, 2.215968848119246, 2.6492615928987107, 2.0827933665191267, 5.932548510936158, 2.265989771419754, 2.6993828288564146, 3.782940293111551, 3.115859464283858, 2.515840461159769, 2.9322969016302523, 2.7489717124926756, 6.499509692917854, 2.6160753185836256, 3.8489473461177113, 3.4669047685256373, 2.8673293923370693, 4.4483244144457785, 4.34939461476597, 3.1828047551507552, 3.0660603544511105, 2.8343473850509326, 2.4662360174747846, 2.066002749162635, 3.099380378976548, 3.3493932905066686, 2.9827280143122152, 3.2661341157058814, 2.8151830325277842, 2.2661457029767007]",006637,001,2022-11-04_11h32.24.680,untitled,2022.2.2,59.98129404691774,
0.4,400,unexp,4,1,49,1,522.4500913076931,523.450235983044,523.450235983044,523.450235983044,space,0.17248620989539631,524.0501360676642,524.350176590005,524.350176590005,524.350176590005,524.350176590005,767,50,"[64.85013024092268, 9.732799193261144, 34.917669793243476, 24.8494535443142, 3.4327584060683876, 3.1316251047819605, 4.366286869039868, 5.599688269312082, 2.8653264498320823, 3.7640944250001667, 5.5826251855619375, 9.33276522600454, 2.099304565119837, 2.515198526364202, 3.432824619043913, 2.6829163240145135, 2.4812835782549882, 2.7990972522939046, 2.3993662093998864, 2.232909437865146, 2.2159655374703107, 2.649257620120352, 2.0827900558701913, 5.932544869222511, 2.2659864607708187, 2.699379518207479, 3.782936651397904, 3.1158561536353773, 2.515837150511288, 2.932293590981317, 2.74896840184374, 6.499506382268919, 2.6160716768699785, 3.848943704404064, 3.4669014578771566, 2.8673254195587106, 4.448321103796843, 4.349391304117489, 3.182801113437108, 3.066057043802175, 2.834344074402452, 2.466232706826304, 2.065999107448988, 3.0993770683280673, 3.349389979858188, 2.9827247036637345, 3.266130142927068, 2.815179721878849, 2.2661423923277653, 2.366092865021983]","[64.85013388263633, 9.732802503909625, 34.91767310389196, 24.849456854963137, 3.4327620477820346, 3.131629077560774, 4.366290179688804, 5.599691579961018, 2.8653300915457294, 3.7640980667138138, 5.582628496210873, 9.332768536653475, 2.0993078757687726, 2.515202168077849, 3.4328279296928486, 2.6829199657281606, 2.4812872199686353, 2.79910056294284, 2.399369520048822, 2.2329130795787933, 2.215968848119246, 2.6492615928987107, 2.0827933665191267, 5.932548510936158, 2.265989771419754, 2.6993828288564146, 3.782940293111551, 3.115859464283858, 2.515840461159769, 2.9322969016302523, 2.7489717124926756, 6.499509692917854, 2.6160753185836256, 3.8489473461177113, 3.4669047685256373, 2.8673293923370693, 4.4483244144457785, 4.34939461476597, 3.1828047551507552, 3.0660603544511105, 2.8343473850509326, 2.4662360174747846, 2.066002749162635, 3.099380378976548, 3.3493932905066686, 2.9827280143122152, 3.2661341157058814, 2.8151830325277842, 2.2661457029767007, 2.3660961756709185]",006637,001,2022-11-04_11h32.24.680,untitled,2022.2.2,59.98129404691774,
0.4,1000,exp,4,2,50,10,526.716955421452,527.7172431168301,527.7172431168301,527.7172431168301,space,0.41777714308773284,528.5502840536644,528.8503901268509,528.8503901268509,528.8503901268509,528.8503901268509,"795 
",51,"[64.85013024092268, 9.732799193261144, 34.917669793243476, 24.8494535443142, 3.4327584060683876, 3.1316251047819605, 4.366286869039868, 5.599688269312082, 2.8653264498320823, 3.7640944250001667, 5.5826251855619375, 9.33276522600454, 2.099304565119837, 2.515198526364202, 3.432824619043913, 2.6829163240145135, 2.4812835782549882, 2.7990972522939046, 2.3993662093998864, 2.232909437865146, 2.2159655374703107, 2.649257620120352, 2.0827900558701913, 5.932544869222511, 2.2659864607708187, 2.699379518207479, 3.782936651397904, 3.1158561536353773, 2.515837150511288, 2.932293590981317, 2.74896840184374, 6.499506382268919, 2.6160716768699785, 3.848943704404064, 3.4669014578771566, 2.8673254195587106, 4.448321103796843, 4.349391304117489, 3.182801113437108, 3.066057043802175, 2.834344074402452, 2.466232706826304, 2.065999107448988, 3.0993770683280673, 3.349389979858188, 2.9827247036637345, 3.266130142927068, 2.815179721878849, 2.2661423923277653, 2.366092865021983, 4.217785070033642]","[64.85013388263633, 9.732802503909625, 34.91767310389196, 24.849456854963137, 3.4327620477820346, 3.131629077560774, 4.366290179688804, 5.599691579961018, 2.8653300915457294, 3.7640980667138138, 5.582628496210873, 9.332768536653475, 2.0993078757687726, 2.515202168077849, 3.4328279296928486, 2.6829199657281606, 2.4812872199686353, 2.79910056294284, 2.399369520048822, 2.2329130795787933, 2.215968848119246, 2.6492615928987107, 2.0827933665191267, 5.932548510936158, 2.265989771419754, 2.6993828288564146, 3.782940293111551, 3.115859464283858, 2.515840461159769, 2.9322969016302523, 2.7489717124926756, 6.499509692917854, 2.6160753185836256, 3.8489473461177113, 3.4669047685256373, 2.8673293923370693, 4.4483244144457785, 4.34939461476597, 3.1828047551507552, 3.0660603544511105, 2.8343473850509326, 2.4662360174747846, 2.066002749162635, 3.099380378976548, 3.3493932905066686, 2.9827280143122152, 3.2661341157058814, 2.8151830325277842, 2.2661457029767007, 2.3660961756709185, 4.217788711747289]",006637,001,2022-11-04_11h32.24.680,untitled,2022.2.2,59.98129404691774,
0.7,1000,exp,4,3,51,11,533.0690276889418,534.0671177756676,534.0671177756676,534.0837984794853,space,0.4360062373339133,535.2170993684606,,535.5171425393205,535.5171425393205,535.5171425393205,"450
",52,"[64.85013024092268, 9.732799193261144, 34.917669793243476, 24.8494535443142, 3.4327584060683876, 3.1316251047819605, 4.366286869039868, 5.599688269312082, 2.8653264498320823, 3.7640944250001667, 5.5826251855619375, 9.33276522600454, 2.099304565119837, 2.515198526364202, 3.432824619043913, 2.6829163240145135, 2.4812835782549882, 2.7990972522939046, 2.3993662093998864, 2.232909437865146, 2.2159655374703107, 2.649257620120352, 2.0827900558701913, 5.932544869222511, 2.2659864607708187, 2.699379518207479, 3.782936651397904, 3.1158561536353773, 2.515837150511288, 2.932293590981317, 2.74896840184374, 6.499506382268919, 2.6160716768699785, 3.848943704404064, 3.4669014578771566, 2.8673254195587106, 4.448321103796843, 4.349391304117489, 3.182801113437108, 3.066057043802175, 2.834344074402452, 2.466232706826304, 2.065999107448988, 3.0993770683280673, 3.349389979858188, 2.9827247036637345, 3.266130142927068, 2.815179721878849, 2.2661423923277653, 2.366092865021983, 4.217785070033642, 2.832609956577471]","[64.85013388263633, 9.732802503909625, 34.91767310389196, 24.849456854963137, 3.4327620477820346, 3.131629077560774, 4.366290179688804, 5.599691579961018, 2.8653300915457294, 3.7640980667138138, 5.582628496210873, 9.332768536653475, 2.0993078757687726, 2.515202168077849, 3.4328279296928486, 2.6829199657281606, 2.4812872199686353, 2.79910056294284, 2.399369520048822, 2.2329130795787933, 2.215968848119246, 2.6492615928987107, 2.0827933665191267, 5.932548510936158, 2.265989771419754, 2.6993828288564146, 3.782940293111551, 3.115859464283858, 2.515840461159769, 2.9322969016302523, 2.7489717124926756, 6.499509692917854, 2.6160753185836256, 3.8489473461177113, 3.4669047685256373, 2.8673293923370693, 4.4483244144457785, 4.34939461476597, 3.1828047551507552, 3.0660603544511105, 2.8343473850509326, 2.4662360174747846, 2.066002749162635, 3.099380378976548, 3.3493932905066686, 2.9827280143122152, 3.2661341157058814, 2.8151830325277842, 2.2661457029767007, 2.3660961756709185, 4.217788711747289, 2.8326132672264066]",006637,001,2022-11-04_11h32.24.680,untitled,2022.2.2,59.98129404691774,
0.7,400,unexp,4,4,52,2,538.3504828250161,539.3506576272712,539.3506576272712,539.3506576272712,space,0.3036143862973404,540.3839229598786,540.6838876683628,540.6838876683628,540.6838876683628,540.6838876683628,360,53,"[64.85013024092268, 9.732799193261144, 34.917669793243476, 24.8494535443142, 3.4327584060683876, 3.1316251047819605, 4.366286869039868, 5.599688269312082, 2.8653264498320823, 3.7640944250001667, 5.5826251855619375, 9.33276522600454, 2.099304565119837, 2.515198526364202, 3.432824619043913, 2.6829163240145135, 2.4812835782549882, 2.7990972522939046, 2.3993662093998864, 2.232909437865146, 2.2159655374703107, 2.649257620120352, 2.0827900558701913, 5.932544869222511, 2.2659864607708187, 2.699379518207479, 3.782936651397904, 3.1158561536353773, 2.515837150511288, 2.932293590981317, 2.74896840184374, 6.499506382268919, 2.6160716768699785, 3.848943704404064, 3.4669014578771566, 2.8673254195587106, 4.448321103796843, 4.349391304117489, 3.182801113437108, 3.066057043802175, 2.834344074402452, 2.466232706826304, 2.065999107448988, 3.0993770683280673, 3.349389979858188, 2.9827247036637345, 3.266130142927068, 2.815179721878849, 2.2661423923277653, 2.366092865021983, 4.217785070033642, 2.832609956577471, 2.7158261591575865]","[64.85013388263633, 9.732802503909625, 34.91767310389196, 24.849456854963137, 3.4327620477820346, 3.131629077560774, 4.366290179688804, 5.599691579961018, 2.8653300915457294, 3.7640980667138138, 5.582628496210873, 9.332768536653475, 2.0993078757687726, 2.515202168077849, 3.4328279296928486, 2.6829199657281606, 2.4812872199686353, 2.79910056294284, 2.399369520048822, 2.2329130795787933, 2.215968848119246, 2.6492615928987107, 2.0827933665191267, 5.932548510936158, 2.265989771419754, 2.6993828288564146, 3.782940293111551, 3.115859464283858, 2.515840461159769, 2.9322969016302523, 2.7489717124926756, 6.499509692917854, 2.6160753185836256, 3.8489473461177113, 3.4669047685256373, 2.8673293923370693, 4.4483244144457785, 4.34939461476597, 3.1828047551507552, 3.0660603544511105, 2.8343473850509326, 2.4662360174747846, 2.066002749162635, 3.099380378976548, 3.3493932905066686, 2.9827280143122152, 3.2661341157058814, 2.8151830325277842, 2.2661457029767007, 2.3660961756709185, 4.217788711747289, 2.8326132672264066, 2.7158298008712336]",006637,001,2022-11-04_11h32.24.680,untitled,2022.2.2,59.98129404691774,
0.1,1000,exp,4,5,53,9,543.4005441382315,544.4005159977169,544.4005159977169,544.4005159977169,space,0.557912270527595,545.0671849156249,545.367275759827,545.367275759827,545.367275759827,545.367275759827,780,54,"[64.85013024092268, 9.732799193261144, 34.917669793243476, 24.8494535443142, 3.4327584060683876, 3.1316251047819605, 4.366286869039868, 5.599688269312082, 2.8653264498320823, 3.7640944250001667, 5.5826251855619375, 9.33276522600454, 2.099304565119837, 2.515198526364202, 3.432824619043913, 2.6829163240145135, 2.4812835782549882, 2.7990972522939046, 2.3993662093998864, 2.232909437865146, 2.2159655374703107, 2.649257620120352, 2.0827900558701913, 5.932544869222511, 2.2659864607708187, 2.699379518207479, 3.782936651397904, 3.1158561536353773, 2.515837150511288, 2.932293590981317, 2.74896840184374, 6.499506382268919, 2.6160716768699785, 3.848943704404064, 3.4669014578771566, 2.8673254195587106, 4.448321103796843, 4.349391304117489, 3.182801113437108, 3.066057043802175, 2.834344074402452, 2.466232706826304, 2.065999107448988, 3.0993770683280673, 3.349389979858188, 2.9827247036637345, 3.266130142927068, 2.815179721878849, 2.2661423923277653, 2.366092865021983, 4.217785070033642, 2.832609956577471, 2.7158261591575865, 3.1994026927491177]","[64.85013388263633, 9.732802503909625, 34.91767310389196, 24.849456854963137, 3.4327620477820346, 3.131629077560774, 4.366290179688804, 5.599691579961018, 2.8653300915457294, 3.7640980667138138, 5.582628496210873, 9.332768536653475, 2.0993078757687726, 2.515202168077849, 3.4328279296928486, 2.6829199657281606, 2.4812872199686353, 2.79910056294284, 2.399369520048822, 2.2329130795787933, 2.215968848119246, 2.6492615928987107, 2.0827933665191267, 5.932548510936158, 2.265989771419754, 2.6993828288564146, 3.782940293111551, 3.115859464283858, 2.515840461159769, 2.9322969016302523, 2.7489717124926756, 6.499509692917854, 2.6160753185836256, 3.8489473461177113, 3.4669047685256373, 2.8673293923370693, 4.4483244144457785, 4.34939461476597, 3.1828047551507552, 3.0660603544511105, 2.8343473850509326, 2.4662360174747846, 2.066002749162635, 3.099380378976548, 3.3493932905066686, 2.9827280143122152, 3.2661341157058814, 2.8151830325277842, 2.2661457029767007, 2.3660961756709185, 4.217788711747289, 2.8326132672264066, 2.7158298008712336, 3.199406003398053]",006637,001,2022-11-04_11h32.24.680,untitled,2022.2.2,59.98129404691774,
0.1,1000,exp,4,6,54,6,548.5673359474217,549.5672276892069,549.5672276892069,549.5672276892069,space,1.4385021354396486,551.117288936209,,551.4173281342905,551.4173281342905,551.4173281342905,450,55,"[64.85013024092268, 9.732799193261144, 34.917669793243476, 24.8494535443142, 3.4327584060683876, 3.1316251047819605, 4.366286869039868, 5.599688269312082, 2.8653264498320823, 3.7640944250001667, 5.5826251855619375, 9.33276522600454, 2.099304565119837, 2.515198526364202, 3.432824619043913, 2.6829163240145135, 2.4812835782549882, 2.7990972522939046, 2.3993662093998864, 2.232909437865146, 2.2159655374703107, 2.649257620120352, 2.0827900558701913, 5.932544869222511, 2.2659864607708187, 2.699379518207479, 3.782936651397904, 3.1158561536353773, 2.515837150511288, 2.932293590981317, 2.74896840184374, 6.499506382268919, 2.6160716768699785, 3.848943704404064, 3.4669014578771566, 2.8673254195587106, 4.448321103796843, 4.349391304117489, 3.182801113437108, 3.066057043802175, 2.834344074402452, 2.466232706826304, 2.065999107448988, 3.0993770683280673, 3.349389979858188, 2.9827247036637345, 3.266130142927068, 2.815179721878849, 2.2661423923277653, 2.366092865021983, 4.217785070033642, 2.832609956577471, 2.7158261591575865, 3.1994026927491177, 3.165873104157072]","[64.85013388263633, 9.732802503909625, 34.91767310389196, 24.849456854963137, 3.4327620477820346, 3.131629077560774, 4.366290179688804, 5.599691579961018, 2.8653300915457294, 3.7640980667138138, 5.582628496210873, 9.332768536653475, 2.0993078757687726, 2.515202168077849, 3.4328279296928486, 2.6829199657281606, 2.4812872199686353, 2.79910056294284, 2.399369520048822, 2.2329130795787933, 2.215968848119246, 2.6492615928987107, 2.0827933665191267, 5.932548510936158, 2.265989771419754, 2.6993828288564146, 3.782940293111551, 3.115859464283858, 2.515840461159769, 2.9322969016302523, 2.7489717124926756, 6.499509692917854, 2.6160753185836256, 3.8489473461177113, 3.4669047685256373, 2.8673293923370693, 4.4483244144457785, 4.34939461476597, 3.1828047551507552, 3.0660603544511105, 2.8343473850509326, 2.4662360174747846, 2.066002749162635, 3.099380378976548, 3.3493932905066686, 2.9827280143122152, 3.2661341157058814, 2.8151830325277842, 2.2661457029767007, 2.3660961756709185, 4.217788711747289, 2.8326132672264066, 2.7158298008712336, 3.199406003398053, 3.1658764148060072]",006637,001,2022-11-04_11h32.24.680,untitled,2022.2.2,59.98129404691774,
0.4,1000,exp,4,7,55,7,554.583932891825,555.5838931640401,555.5838931640401,555.5838931640401,space,0.8458751488851703,556.835252781276,,557.1341034564498,557.1341034564498,557.1341034564498,456,56,"[64.85013024092268, 9.732799193261144, 34.917669793243476, 24.8494535443142, 3.4327584060683876, 3.1316251047819605, 4.366286869039868, 5.599688269312082, 2.8653264498320823, 3.7640944250001667, 5.5826251855619375, 9.33276522600454, 2.099304565119837, 2.515198526364202, 3.432824619043913, 2.6829163240145135, 2.4812835782549882, 2.7990972522939046, 2.3993662093998864, 2.232909437865146, 2.2159655374703107, 2.649257620120352, 2.0827900558701913, 5.932544869222511, 2.2659864607708187, 2.699379518207479, 3.782936651397904, 3.1158561536353773, 2.515837150511288, 2.932293590981317, 2.74896840184374, 6.499506382268919, 2.6160716768699785, 3.848943704404064, 3.4669014578771566, 2.8673254195587106, 4.448321103796843, 4.349391304117489, 3.182801113437108, 3.066057043802175, 2.834344074402452, 2.466232706826304, 2.065999107448988, 3.0993770683280673, 3.349389979858188, 2.9827247036637345, 3.266130142927068, 2.815179721878849, 2.2661423923277653, 2.366092865021983, 4.217785070033642, 2.832609956577471, 2.7158261591575865, 3.1994026927491177, 3.165873104157072, 3.2473415490389925]","[64.85013388263633, 9.732802503909625, 34.91767310389196, 24.849456854963137, 3.4327620477820346, 3.131629077560774, 4.366290179688804, 5.599691579961018, 2.8653300915457294, 3.7640980667138138, 5.582628496210873, 9.332768536653475, 2.0993078757687726, 2.515202168077849, 3.4328279296928486, 2.6829199657281606, 2.4812872199686353, 2.79910056294284, 2.399369520048822, 2.2329130795787933, 2.215968848119246, 2.6492615928987107, 2.0827933665191267, 5.932548510936158, 2.265989771419754, 2.6993828288564146, 3.782940293111551, 3.115859464283858, 2.515840461159769, 2.9322969016302523, 2.7489717124926756, 6.499509692917854, 2.6160753185836256, 3.8489473461177113, 3.4669047685256373, 2.8673293923370693, 4.4483244144457785, 4.34939461476597, 3.1828047551507552, 3.0660603544511105, 2.8343473850509326, 2.4662360174747846, 2.066002749162635, 3.099380378976548, 3.3493932905066686, 2.9827280143122152, 3.2661341157058814, 2.8151830325277842, 2.2661457029767007, 2.3660961756709185, 4.217788711747289, 2.8326132672264066, 2.7158298008712336, 3.199406003398053, 3.1658764148060072, 3.247344859687928]",006637,001,2022-11-04_11h32.24.680,untitled,2022.2.2,59.98129404691774,
0.1,1000,exp,4,8,56,3,560.3839826177696,561.3845202671296,561.3845202671296,561.3845202671296,space,0.04549667551782477,561.534953763479,,561.8359907910994,561.8359907910994,561.8359907910994,780 ,57,"[64.85013024092268, 9.732799193261144, 34.917669793243476, 24.8494535443142, 3.4327584060683876, 3.1316251047819605, 4.366286869039868, 5.599688269312082, 2.8653264498320823, 3.7640944250001667, 5.5826251855619375, 9.33276522600454, 2.099304565119837, 2.515198526364202, 3.432824619043913, 2.6829163240145135, 2.4812835782549882, 2.7990972522939046, 2.3993662093998864, 2.232909437865146, 2.2159655374703107, 2.649257620120352, 2.0827900558701913, 5.932544869222511, 2.2659864607708187, 2.699379518207479, 3.782936651397904, 3.1158561536353773, 2.515837150511288, 2.932293590981317, 2.74896840184374, 6.499506382268919, 2.6160716768699785, 3.848943704404064, 3.4669014578771566, 2.8673254195587106, 4.448321103796843, 4.349391304117489, 3.182801113437108, 3.066057043802175, 2.834344074402452, 2.466232706826304, 2.065999107448988, 3.0993770683280673, 3.349389979858188, 2.9827247036637345, 3.266130142927068, 2.815179721878849, 2.2661423923277653, 2.366092865021983, 4.217785070033642, 2.832609956577471, 2.7158261591575865, 3.1994026927491177, 3.165873104157072, 3.2473415490389925, 2.6471791948238206]","[64.85013388263633, 9.732802503909625, 34.91767310389196, 24.849456854963137, 3.4327620477820346, 3.131629077560774, 4.366290179688804, 5.599691579961018, 2.8653300915457294, 3.7640980667138138, 5.582628496210873, 9.332768536653475, 2.0993078757687726, 2.515202168077849, 3.4328279296928486, 2.6829199657281606, 2.4812872199686353, 2.79910056294284, 2.399369520048822, 2.2329130795787933, 2.215968848119246, 2.6492615928987107, 2.0827933665191267, 5.932548510936158, 2.265989771419754, 2.6993828288564146, 3.782940293111551, 3.115859464283858, 2.515840461159769, 2.9322969016302523, 2.7489717124926756, 6.499509692917854, 2.6160753185836256, 3.8489473461177113, 3.4669047685256373, 2.8673293923370693, 4.4483244144457785, 4.34939461476597, 3.1828047551507552, 3.0660603544511105, 2.8343473850509326, 2.4662360174747846, 2.066002749162635, 3.099380378976548, 3.3493932905066686, 2.9827280143122152, 3.2661341157058814, 2.8151830325277842, 2.2661457029767007, 2.3660961756709185, 4.217788711747289, 2.8326132672264066, 2.7158298008712336, 3.199406003398053, 3.1658764148060072, 3.247344859687928, 2.6471825054723013]",006637,001,2022-11-04_11h32.24.680,untitled,2022.2.2,59.98129404691774,
0.4,1000,exp,4,9,57,4,564.4840790900748,565.4840655164148,565.4840655164148,565.4840655164148,space,0.9780875627589012,566.884222904657,,567.1843283157141,567.1843283157141,567.1843283157141,450,58,"[64.85013024092268, 9.732799193261144, 34.917669793243476, 24.8494535443142, 3.4327584060683876, 3.1316251047819605, 4.366286869039868, 5.599688269312082, 2.8653264498320823, 3.7640944250001667, 5.5826251855619375, 9.33276522600454, 2.099304565119837, 2.515198526364202, 3.432824619043913, 2.6829163240145135, 2.4812835782549882, 2.7990972522939046, 2.3993662093998864, 2.232909437865146, 2.2159655374703107, 2.649257620120352, 2.0827900558701913, 5.932544869222511, 2.2659864607708187, 2.699379518207479, 3.782936651397904, 3.1158561536353773, 2.515837150511288, 2.932293590981317, 2.74896840184374, 6.499506382268919, 2.6160716768699785, 3.848943704404064, 3.4669014578771566, 2.8673254195587106, 4.448321103796843, 4.349391304117489, 3.182801113437108, 3.066057043802175, 2.834344074402452, 2.466232706826304, 2.065999107448988, 3.0993770683280673, 3.349389979858188, 2.9827247036637345, 3.266130142927068, 2.815179721878849, 2.2661423923277653, 2.366092865021983, 4.217785070033642, 2.832609956577471, 2.7158261591575865, 3.1994026927491177, 3.165873104157072, 3.2473415490389925, 2.6471791948238206, 2.699289137496635]","[64.85013388263633, 9.732802503909625, 34.91767310389196, 24.849456854963137, 3.4327620477820346, 3.131629077560774, 4.366290179688804, 5.599691579961018, 2.8653300915457294, 3.7640980667138138, 5.582628496210873, 9.332768536653475, 2.0993078757687726, 2.515202168077849, 3.4328279296928486, 2.6829199657281606, 2.4812872199686353, 2.79910056294284, 2.399369520048822, 2.2329130795787933, 2.215968848119246, 2.6492615928987107, 2.0827933665191267, 5.932548510936158, 2.265989771419754, 2.6993828288564146, 3.782940293111551, 3.115859464283858, 2.515840461159769, 2.9322969016302523, 2.7489717124926756, 6.499509692917854, 2.6160753185836256, 3.8489473461177113, 3.4669047685256373, 2.8673293923370693, 4.4483244144457785, 4.34939461476597, 3.1828047551507552, 3.0660603544511105, 2.8343473850509326, 2.4662360174747846, 2.066002749162635, 3.099380378976548, 3.3493932905066686, 2.9827280143122152, 3.2661341157058814, 2.8151830325277842, 2.2661457029767007, 2.3660961756709185, 4.217788711747289, 2.8326132672264066, 2.7158298008712336, 3.199406003398053, 3.1658764148060072, 3.247344859687928, 2.6471825054723013, 2.699292779210282]",006637,001,2022-11-04_11h32.24.680,untitled,2022.2.2,59.98129404691774,
0.7,1000,exp,4,10,58,8,569.8841024632552,570.8841219960827,570.8841219960827,570.8841219960827,space,0.06532713057322326,571.6675571649723,,571.9674847941901,571.9674847941901,571.9674847941901,600,59,"[64.85013024092268, 9.732799193261144, 34.917669793243476, 24.8494535443142, 3.4327584060683876, 3.1316251047819605, 4.366286869039868, 5.599688269312082, 2.8653264498320823, 3.7640944250001667, 5.5826251855619375, 9.33276522600454, 2.099304565119837, 2.515198526364202, 3.432824619043913, 2.6829163240145135, 2.4812835782549882, 2.7990972522939046, 2.3993662093998864, 2.232909437865146, 2.2159655374703107, 2.649257620120352, 2.0827900558701913, 5.932544869222511, 2.2659864607708187, 2.699379518207479, 3.782936651397904, 3.1158561536353773, 2.515837150511288, 2.932293590981317, 2.74896840184374, 6.499506382268919, 2.6160716768699785, 3.848943704404064, 3.4669014578771566, 2.8673254195587106, 4.448321103796843, 4.349391304117489, 3.182801113437108, 3.066057043802175, 2.834344074402452, 2.466232706826304, 2.065999107448988, 3.0993770683280673, 3.349389979858188, 2.9827247036637345, 3.266130142927068, 2.815179721878849, 2.2661423923277653, 2.366092865021983, 4.217785070033642, 2.832609956577471, 2.7158261591575865, 3.1994026927491177, 3.165873104157072, 3.2473415490389925, 2.6471791948238206, 2.699289137496635, 2.5658795930285123]","[64.85013388263633, 9.732802503909625, 34.91767310389196, 24.849456854963137, 3.4327620477820346, 3.131629077560774, 4.366290179688804, 5.599691579961018, 2.8653300915457294, 3.7640980667138138, 5.582628496210873, 9.332768536653475, 2.0993078757687726, 2.515202168077849, 3.4328279296928486, 2.6829199657281606, 2.4812872199686353, 2.79910056294284, 2.399369520048822, 2.2329130795787933, 2.215968848119246, 2.6492615928987107, 2.0827933665191267, 5.932548510936158, 2.265989771419754, 2.6993828288564146, 3.782940293111551, 3.115859464283858, 2.515840461159769, 2.9322969016302523, 2.7489717124926756, 6.499509692917854, 2.6160753185836256, 3.8489473461177113, 3.4669047685256373, 2.8673293923370693, 4.4483244144457785, 4.34939461476597, 3.1828047551507552, 3.0660603544511105, 2.8343473850509326, 2.4662360174747846, 2.066002749162635, 3.099380378976548, 3.3493932905066686, 2.9827280143122152, 3.2661341157058814, 2.8151830325277842, 2.2661457029767007, 2.3660961756709185, 4.217788711747289, 2.8326132672264066, 2.7158298008712336, 3.199406003398053, 3.1658764148060072, 3.247344859687928, 2.6471825054723013, 2.699292779210282, 2.5658838968720374]",006637,001,2022-11-04_11h32.24.680,untitled,2022.2.2,59.98129404691774,
0.7,1000,exp,4,11,59,5,574.5341556322742,575.5342079405245,575.5342079405245,575.5342079405245,space,0.4072876835311945,576.6675747114107,576.967547365452,576.967547365452,576.967547365452,576.967547365452,740,60,"[64.85013024092268, 9.732799193261144, 34.917669793243476, 24.8494535443142, 3.4327584060683876, 3.1316251047819605, 4.366286869039868, 5.599688269312082, 2.8653264498320823, 3.7640944250001667, 5.5826251855619375, 9.33276522600454, 2.099304565119837, 2.515198526364202, 3.432824619043913, 2.6829163240145135, 2.4812835782549882, 2.7990972522939046, 2.3993662093998864, 2.232909437865146, 2.2159655374703107, 2.649257620120352, 2.0827900558701913, 5.932544869222511, 2.2659864607708187, 2.699379518207479, 3.782936651397904, 3.1158561536353773, 2.515837150511288, 2.932293590981317, 2.74896840184374, 6.499506382268919, 2.6160716768699785, 3.848943704404064, 3.4669014578771566, 2.8673254195587106, 4.448321103796843, 4.349391304117489, 3.182801113437108, 3.066057043802175, 2.834344074402452, 2.466232706826304, 2.065999107448988, 3.0993770683280673, 3.349389979858188, 2.9827247036637345, 3.266130142927068, 2.815179721878849, 2.2661423923277653, 2.366092865021983, 4.217785070033642, 2.832609956577471, 2.7158261591575865, 3.1994026927491177, 3.165873104157072, 3.2473415490389925, 2.6471791948238206, 2.699289137496635, 2.5658795930285123, 2.4826853069434947]","[64.85013388263633, 9.732802503909625, 34.91767310389196, 24.849456854963137, 3.4327620477820346, 3.131629077560774, 4.366290179688804, 5.599691579961018, 2.8653300915457294, 3.7640980667138138, 5.582628496210873, 9.332768536653475, 2.0993078757687726, 2.515202168077849, 3.4328279296928486, 2.6829199657281606, 2.4812872199686353, 2.79910056294284, 2.399369520048822, 2.2329130795787933, 2.215968848119246, 2.6492615928987107, 2.0827933665191267, 5.932548510936158, 2.265989771419754, 2.6993828288564146, 3.782940293111551, 3.115859464283858, 2.515840461159769, 2.9322969016302523, 2.7489717124926756, 6.499509692917854, 2.6160753185836256, 3.8489473461177113, 3.4669047685256373, 2.8673293923370693, 4.4483244144457785, 4.34939461476597, 3.1828047551507552, 3.0660603544511105, 2.8343473850509326, 2.4662360174747846, 2.066002749162635, 3.099380378976548, 3.3493932905066686, 2.9827280143122152, 3.2661341157058814, 2.8151830325277842, 2.2661457029767007, 2.3660961756709185, 4.217788711747289, 2.8326132672264066, 2.7158298008712336, 3.199406003398053, 3.1658764148060072, 3.247344859687928, 2.6471825054723013, 2.699292779210282, 2.5658838968720374, 2.4826889486571417]",006637,001,2022-11-04_11h32.24.680,untitled,2022.2.2,59.98129404691774,
